GetSunElevation:     48.6
GetSunAzimuth:       154.8
GetSatElevation:     72.4
GetSatAzimuth:       359
GetPhysicalBias:     [0, 0, 0, 0]
GetPhysicalGain:     [4.23908, 6.88231, 5.60224, 7.39098]
GetSolarIrradiance:  [1924.59, 1843.08, 1574.77, 1113.71]
GetFirstWavelengths: [0.45, 0.52, 0.63, 0.76]
GetLastWavelengths:  [0.52, 0.6, 0.69, 0.9]
GetSpectralSensitivity:  ObjectList (0x1e571c0)
  RTTI typeinfo:   otb::ObjectList<otb::FilterFunctionValues>
  Reference Count: 1
  Modified Time: 154
  Debug: Off
  Object Name: 
  Observers: 
    none
  Source: (none)
  Source output name: (none)
  Release Data: Off
  Data Released: False
  Global Release Data: Off
  PipelineMTime: 0
  UpdateMTime: 0
  RealTimeStamp: 0 seconds 
  Size: 4
  List contains : 
    0x1e53ce0
    FilterFunctionValues (0x1e53ce0)
  Minimum spectral value       : 0.3
  Maximum spectral value       : 1.1
  Wavelength spectral band step: 0.0025
  Filter function values: 
  0.000000e+00  4.816000e-11  9.632000e-11  1.460600e-10  1.958000e-10  2.471500e-10
  2.985000e-10  3.514000e-10  4.043000e-10  5.050000e-04  1.010000e-03  1.530500e-03
  2.051000e-03  2.587000e-03  3.123000e-03  3.674500e-03  4.226000e-03  4.381500e-03
  4.537000e-03  4.929500e-03  5.322000e-03  4.689500e-03  4.057000e-03  3.661000e-03
  3.265000e-03  2.984000e-03  2.703000e-03  2.503000e-03  2.303000e-03  1.781500e-03
  1.260000e-03  1.530500e-03  1.801000e-03  2.002500e-03  2.204000e-03  2.299500e-03
  2.395000e-03  2.473500e-03  2.552000e-03  2.512000e-03  2.472000e-03  2.689500e-03
  2.907000e-03  3.455000e-03  4.003000e-03  5.281500e-03  6.560000e-03  9.850000e-03
  1.314000e-02  2.076000e-02  2.838000e-02  4.826000e-02  6.814000e-02  1.116700e-01
  1.552000e-01  2.164000e-01  2.776000e-01  3.544500e-01  4.313000e-01  5.306000e-01
  6.299000e-01  6.770000e-01  7.241000e-01  7.577500e-01  7.914000e-01  8.176500e-01
  8.439000e-01  8.667500e-01  8.896000e-01  9.037000e-01  9.178000e-01  9.235500e-01
  9.293000e-01  9.447500e-01  9.602000e-01  9.801000e-01  1.000000e+00  9.958000e-01
  9.916000e-01  9.547500e-01  9.179000e-01  8.451500e-01  7.724000e-01  6.729000e-01
  5.734000e-01  4.787000e-01  3.840000e-01  3.246500e-01  2.653000e-01  2.122500e-01
  1.592000e-01  1.204150e-01  8.163000e-02  7.543500e-02  6.924000e-02  6.627000e-02
  6.330000e-02  5.511500e-02  4.693000e-02  3.814000e-02  2.935000e-02  2.349500e-02
  1.764000e-02  1.518500e-02  1.273000e-02  1.259500e-02  1.246000e-02  1.267500e-02
  1.289000e-02  1.275500e-02  1.262000e-02  1.186500e-02  1.111000e-02  1.060000e-02
  1.009000e-02  9.825500e-03  9.561000e-03  9.422500e-03  9.284000e-03  9.525500e-03
  9.767000e-03  1.020350e-02  1.064000e-02  1.051500e-02  1.039000e-02  9.141500e-03
  7.893000e-03  6.632000e-03  5.371000e-03  4.464000e-03  3.557000e-03  3.094500e-03
  2.632000e-03  2.567500e-03  2.503000e-03  2.494500e-03  2.486000e-03  2.515500e-03
  2.545000e-03  2.665000e-03  2.785000e-03  2.723500e-03  2.662000e-03  2.702500e-03
  2.743000e-03  3.015500e-03  3.288000e-03  3.867000e-03  4.446000e-03  6.651000e-03
  8.856000e-03  1.251800e-02  1.618000e-02  2.017500e-02  2.417000e-02  2.563000e-02
  2.709000e-02  2.308000e-02  1.907000e-02  1.368650e-02  8.303000e-03  6.957000e-03
  5.611000e-03  6.304500e-03  6.998000e-03  8.584000e-03  1.017000e-02  1.113500e-02
  1.210000e-02  1.062050e-02  9.141000e-03  6.401000e-03  3.661000e-03  3.178000e-03
  2.695000e-03  2.812000e-03  2.929000e-03  2.794500e-03  2.660000e-03  2.858000e-03
  3.056000e-03  3.151500e-03  3.247000e-03  3.411500e-03  3.576000e-03  3.427000e-03
  3.278000e-03  3.445500e-03  3.613000e-03  3.628500e-03  3.644000e-03  3.367000e-03
  3.090000e-03  3.232000e-03  3.374000e-03  3.267000e-03  3.160000e-03  3.149500e-03
  3.139000e-03  3.062000e-03  2.985000e-03  3.139000e-03  3.293000e-03  3.313500e-03
  3.334000e-03  3.450000e-03  3.566000e-03  3.647000e-03  3.728000e-03  3.857000e-03
  3.986000e-03  4.051500e-03  4.117000e-03  4.197000e-03  4.277000e-03  4.226000e-03
  4.175000e-03  4.564500e-03  4.954000e-03  4.868500e-03  4.783000e-03  5.318000e-03
  5.853000e-03  5.788000e-03  5.723000e-03  5.670000e-03  5.617000e-03  5.460000e-03
  5.303000e-03  5.252000e-03  5.201000e-03  5.183000e-03  5.165000e-03  5.159500e-03
  5.154000e-03  5.217500e-03  5.281000e-03  5.490000e-03  5.699000e-03  6.250500e-03
  6.802000e-03  7.529000e-03  8.256000e-03  9.005500e-03  9.755000e-03  1.014750e-02
  1.054000e-02  1.074500e-02  1.095000e-02  1.013700e-02  9.324000e-03  8.472500e-03
  7.621000e-03  6.873500e-03  6.126000e-03  5.581500e-03  5.037000e-03  4.631500e-03
  4.226000e-03  3.881000e-03  3.536000e-03  3.226500e-03  2.917000e-03  2.516000e-03
  2.115000e-03  1.920500e-03  1.726000e-03  1.647000e-03  1.568000e-03  1.476500e-03
  1.385000e-03  1.294000e-03  1.203000e-03  1.205000e-03  1.207000e-03  1.214500e-03
  1.222000e-03  1.170500e-03  1.119000e-03  1.119500e-03  1.120000e-03  1.082000e-03
  1.044000e-03  1.064500e-03  1.085000e-03  1.156000e-03  1.227000e-03  1.233000e-03
  1.239000e-03  1.350000e-03  1.461000e-03  1.648000e-03  1.835000e-03  1.667000e-03
  1.499000e-03  1.511000e-03  1.523000e-03  1.464500e-03  1.406000e-03  1.312500e-03
  1.219000e-03  6.095000e-04  0.000000e+00  0.000000e+00  0.000000e+00  0.000000e+00
  0.000000e+00  0.000000e+00  0.000000e+00  0.000000e+00  0.000000e+00  0.000000e+00
  0.000000e+00  0.000000e+00  0.000000e+00  0.000000e+00  0.000000e+00  0.000000e+00
  0.000000e+00  0.000000e+00  0.000000e+00

    0x1e5a820
    FilterFunctionValues (0x1e5a820)
  Minimum spectral value       : 0.3
  Maximum spectral value       : 1.1
  Wavelength spectral band step: 0.0025
  Filter function values: 
  0.000000e+00  0.000000e+00  0.000000e+00  0.000000e+00  0.000000e+00  0.000000e+00
  0.000000e+00  0.000000e+00  0.000000e+00  0.000000e+00  0.000000e+00  0.000000e+00
  0.000000e+00  0.000000e+00  0.000000e+00  0.000000e+00  0.000000e+00  0.000000e+00
  0.000000e+00  1.543000e-03  3.086000e-03  3.556500e-03  4.027000e-03  3.107500e-03
  2.188000e-03  2.253500e-03  2.319000e-03  1.899000e-03  1.479000e-03  1.453500e-03
  1.428000e-03  1.127150e-03  8.263000e-04  9.831500e-04  1.140000e-03  1.191000e-03
  1.242000e-03  1.196500e-03  1.151000e-03  1.195000e-03  1.239000e-03  1.190000e-03
  1.141000e-03  1.164000e-03  1.187000e-03  1.289000e-03  1.391000e-03  1.642500e-03
  1.894000e-03  2.114500e-03  2.335000e-03  2.574000e-03  2.813000e-03  3.259500e-03
  3.706000e-03  4.625500e-03  5.545000e-03  7.682500e-03  9.820000e-03  1.383500e-02
  1.785000e-02  2.064000e-02  2.343000e-02  2.676500e-02  3.010000e-02  3.563000e-02
  4.116000e-02  5.041500e-02  5.967000e-02  7.891500e-02  9.816000e-02  1.273800e-01
  1.566000e-01  1.924000e-01  2.282000e-01  2.739000e-01  3.196000e-01  3.685500e-01
  4.175000e-01  4.726000e-01  5.277000e-01  5.928000e-01  6.579000e-01  7.138500e-01
  7.698000e-01  8.005000e-01  8.312000e-01  8.378500e-01  8.445000e-01  8.575000e-01
  8.705000e-01  8.893500e-01  9.082000e-01  9.271000e-01  9.460000e-01  9.639500e-01
  9.819000e-01  9.909500e-01  1.000000e+00  9.967000e-01  9.934000e-01  9.876000e-01
  9.818000e-01  9.754500e-01  9.691000e-01  9.732500e-01  9.774000e-01  9.821500e-01
  9.869000e-01  9.760500e-01  9.652000e-01  9.315500e-01  8.979000e-01  8.444500e-01
  7.910000e-01  7.230500e-01  6.551000e-01  5.686500e-01  4.822000e-01  3.973000e-01
  3.124000e-01  2.578500e-01  2.033000e-01  1.705500e-01  1.378000e-01  1.139400e-01
  9.008000e-02  7.289500e-02  5.571000e-02  4.609500e-02  3.648000e-02  3.215500e-02
  2.783000e-02  2.699500e-02  2.616000e-02  2.677000e-02  2.738000e-02  2.745000e-02
  2.752000e-02  2.585000e-02  2.418000e-02  2.138000e-02  1.858000e-02  1.667500e-02
  1.477000e-02  1.398000e-02  1.319000e-02  1.321500e-02  1.324000e-02  1.321000e-02
  1.318000e-02  1.241000e-02  1.164000e-02  1.039750e-02  9.155000e-03  7.603500e-03
  6.052000e-03  5.198000e-03  4.344000e-03  3.775000e-03  3.206000e-03  3.030500e-03
  2.855000e-03  2.863000e-03  2.871000e-03  3.460500e-03  4.050000e-03  5.112500e-03
  6.175000e-03  6.901000e-03  7.627000e-03  7.632000e-03  7.637000e-03  6.665000e-03
  5.693000e-03  4.709000e-03  3.725000e-03  3.184000e-03  2.643000e-03  2.404000e-03
  2.165000e-03  2.389000e-03  2.613000e-03  2.826500e-03  3.040000e-03  2.933500e-03
  2.827000e-03  2.958500e-03  3.090000e-03  3.231000e-03  3.372000e-03  3.662500e-03
  3.953000e-03  3.888000e-03  3.823000e-03  4.107000e-03  4.391000e-03  4.264000e-03
  4.137000e-03  3.973000e-03  3.809000e-03  3.648000e-03  3.487000e-03  3.354000e-03
  3.221000e-03  3.132500e-03  3.044000e-03  3.032500e-03  3.021000e-03  3.070500e-03
  3.120000e-03  3.166500e-03  3.213000e-03  3.257500e-03  3.302000e-03  3.500500e-03
  3.699000e-03  4.063500e-03  4.428000e-03  4.754000e-03  5.080000e-03  5.989500e-03
  6.899000e-03  7.348500e-03  7.798000e-03  8.437000e-03  9.076000e-03  9.138500e-03
  9.201000e-03  9.122500e-03  9.044000e-03  8.831500e-03  8.619000e-03  8.299500e-03
  7.980000e-03  7.790000e-03  7.600000e-03  7.548000e-03  7.496000e-03  7.548000e-03
  7.600000e-03  7.711000e-03  7.822000e-03  7.961500e-03  8.101000e-03  8.127000e-03
  8.153000e-03  7.961000e-03  7.769000e-03  7.238000e-03  6.707000e-03  6.149500e-03
  5.592000e-03  5.117000e-03  4.642000e-03  4.250500e-03  3.859000e-03  3.475500e-03
  3.092000e-03  2.880000e-03  2.668000e-03  2.346500e-03  2.025000e-03  1.848500e-03
  1.672000e-03  1.577000e-03  1.482000e-03  1.362000e-03  1.242000e-03  1.247000e-03
  1.252000e-03  1.152000e-03  1.052000e-03  9.972500e-04  9.425000e-04  9.543000e-04
  9.661000e-04  9.163500e-04  8.666000e-04  8.281000e-04  7.896000e-04  8.306500e-04
  8.717000e-04  8.800500e-04  8.884000e-04  9.251500e-04  9.619000e-04  1.039950e-03
  1.118000e-03  1.196000e-03  1.274000e-03  1.162500e-03  1.051000e-03  1.056500e-03
  1.062000e-03  9.608500e-04  8.597000e-04  9.181500e-04  9.766000e-04  9.189000e-04
  8.612000e-04  4.306000e-04  0.000000e+00  0.000000e+00  0.000000e+00  0.000000e+00
  0.000000e+00  0.000000e+00  0.000000e+00  0.000000e+00  0.000000e+00  0.000000e+00
  0.000000e+00  0.000000e+00  0.000000e+00  0.000000e+00  0.000000e+00  0.000000e+00
  0.000000e+00  0.000000e+00  0.000000e+00

    0x1e5a900
    FilterFunctionValues (0x1e5a900)
  Minimum spectral value       : 0.3
  Maximum spectral value       : 1.1
  Wavelength spectral band step: 0.0025
  Filter function values: 
  0.000000e+00  0.000000e+00  0.000000e+00  0.000000e+00  0.000000e+00  0.000000e+00
  0.000000e+00  0.000000e+00  0.000000e+00  0.000000e+00  0.000000e+00  0.000000e+00
  0.000000e+00  0.000000e+00  0.000000e+00  0.000000e+00  0.000000e+00  0.000000e+00
  0.000000e+00  1.857500e-03  3.715000e-03  3.079000e-03  2.443000e-03  2.045500e-03
  1.648000e-03  1.786500e-03  1.925000e-03  1.553000e-03  1.181000e-03  1.127000e-03
  1.073000e-03  9.881000e-04  9.032000e-04  9.367500e-04  9.703000e-04  9.463500e-04
  9.224000e-04  1.117700e-03  1.313000e-03  9.950000e-04  6.770000e-04  9.465000e-04
  1.216000e-03  1.236500e-03  1.257000e-03  1.289000e-03  1.321000e-03  1.236500e-03
  1.152000e-03  1.073750e-03  9.955000e-04  1.257250e-03  1.519000e-03  1.803000e-03
  2.087000e-03  2.445000e-03  2.803000e-03  2.948500e-03  3.094000e-03  2.991000e-03
  2.888000e-03  2.854500e-03  2.821000e-03  2.901000e-03  2.981000e-03  3.220500e-03
  3.460000e-03  3.574000e-03  3.688000e-03  3.422000e-03  3.156000e-03  2.616500e-03
  2.077000e-03  2.126000e-03  2.175000e-03  2.278500e-03  2.382000e-03  2.534000e-03
  2.686000e-03  2.878500e-03  3.071000e-03  3.181000e-03  3.291000e-03  3.396500e-03
  3.502000e-03  3.615000e-03  3.728000e-03  4.149000e-03  4.570000e-03  4.940000e-03
  5.310000e-03  5.630000e-03  5.950000e-03  6.136500e-03  6.323000e-03  6.458000e-03
  6.593000e-03  6.754500e-03  6.916000e-03  7.343000e-03  7.770000e-03  8.377000e-03
  8.984000e-03  9.607000e-03  1.023000e-02  1.101000e-02  1.179000e-02  1.283000e-02
  1.387000e-02  1.577500e-02  1.768000e-02  2.072500e-02  2.377000e-02  2.859500e-02
  3.342000e-02  3.993000e-02  4.644000e-02  5.475500e-02  6.307000e-02  7.513000e-02
  8.719000e-02  1.076450e-01  1.281000e-01  1.665500e-01  2.050000e-01  2.675500e-01
  3.301000e-01  4.130500e-01  4.960000e-01  5.790000e-01  6.620000e-01  7.337000e-01
  8.054000e-01  8.447000e-01  8.840000e-01  8.976000e-01  9.112000e-01  9.265000e-01
  9.418000e-01  9.608000e-01  9.798000e-01  9.878000e-01  9.958000e-01  9.979000e-01
  1.000000e+00  9.961500e-01  9.923000e-01  9.723500e-01  9.524000e-01  9.125000e-01
  8.726000e-01  8.128000e-01  7.530000e-01  6.767000e-01  6.004000e-01  5.119500e-01
  4.235000e-01  3.520500e-01  2.806000e-01  2.228500e-01  1.651000e-01  1.304050e-01
  9.571000e-02  7.443000e-02  5.315000e-02  4.169500e-02  3.024000e-02  2.609500e-02
  2.195000e-02  2.101500e-02  2.008000e-02  2.040500e-02  2.073000e-02  2.110500e-02
  2.148000e-02  2.055000e-02  1.962000e-02  1.719000e-02  1.476000e-02  1.214150e-02
  9.523000e-03  8.077500e-03  6.632000e-03  5.828500e-03  5.025000e-03  4.769000e-03
  4.513000e-03  4.338000e-03  4.163000e-03  4.345000e-03  4.527000e-03  4.795500e-03
  5.064000e-03  5.541000e-03  6.018000e-03  6.341500e-03  6.665000e-03  6.433000e-03
  6.201000e-03  5.328000e-03  4.455000e-03  3.759000e-03  3.063000e-03  2.884000e-03
  2.705000e-03  2.570000e-03  2.435000e-03  2.453000e-03  2.471000e-03  2.477500e-03
  2.484000e-03  2.425500e-03  2.367000e-03  2.491500e-03  2.616000e-03  2.530000e-03
  2.444000e-03  2.528000e-03  2.612000e-03  2.557500e-03  2.503000e-03  2.550000e-03
  2.597000e-03  2.551000e-03  2.505000e-03  2.426000e-03  2.347000e-03  2.360500e-03
  2.374000e-03  2.293500e-03  2.213000e-03  2.167000e-03  2.121000e-03  2.053000e-03
  1.985000e-03  1.928000e-03  1.871000e-03  1.940000e-03  2.009000e-03  2.071000e-03
  2.133000e-03  2.293000e-03  2.453000e-03  2.625500e-03  2.798000e-03  2.792500e-03
  2.787000e-03  2.651000e-03  2.515000e-03  2.023500e-03  1.532000e-03  1.344000e-03
  1.156000e-03  1.118000e-03  1.080000e-03  1.029700e-03  9.794000e-04  9.771000e-04
  9.748000e-04  1.004900e-03  1.035000e-03  9.240500e-04  8.131000e-04  8.206500e-04
  8.282000e-04  7.723000e-04  7.164000e-04  7.073500e-04  6.983000e-04  7.022500e-04
  7.062000e-04  6.895000e-04  6.728000e-04  6.287000e-04  5.846000e-04  6.068000e-04
  6.290000e-04  6.539500e-04  6.789000e-04  7.192500e-04  7.596000e-04  7.190000e-04
  6.784000e-04  6.612500e-04  6.441000e-04  7.476000e-04  8.511000e-04  8.908000e-04
  9.305000e-04  8.436000e-04  7.567000e-04  7.948000e-04  8.329000e-04  8.720000e-04
  9.111000e-04  8.954500e-04  8.798000e-04  7.618000e-04  6.438000e-04  7.380500e-04
  8.323000e-04  4.161500e-04  0.000000e+00  0.000000e+00  0.000000e+00  0.000000e+00
  0.000000e+00  0.000000e+00  0.000000e+00  0.000000e+00  0.000000e+00  0.000000e+00
  0.000000e+00  0.000000e+00  0.000000e+00  0.000000e+00  0.000000e+00  0.000000e+00
  0.000000e+00  0.000000e+00  0.000000e+00

    0x1e52590
    FilterFunctionValues (0x1e52590)
  Minimum spectral value       : 0.3
  Maximum spectral value       : 1.1
  Wavelength spectral band step: 0.0025
  Filter function values: 
  0.000000e+00  6.720000e-11  1.344000e-10  2.038000e-10  2.732000e-10  3.447500e-10
  4.163000e-10  4.901000e-10  5.639000e-10  7.045000e-04  1.409000e-03  2.135000e-03
  2.861000e-03  3.608500e-03  4.356000e-03  5.125500e-03  5.895000e-03  6.112000e-03
  6.329000e-03  6.165500e-03  6.002000e-03  5.693000e-03  5.384000e-03  4.450500e-03
  3.517000e-03  2.812500e-03  2.108000e-03  2.272000e-03  2.436000e-03  2.068000e-03
  1.700000e-03  1.985500e-03  2.271000e-03  2.070500e-03  1.870000e-03  1.745500e-03
  1.621000e-03  1.785500e-03  1.950000e-03  1.890500e-03  1.831000e-03  1.670500e-03
  1.510000e-03  1.504500e-03  1.499000e-03  1.721000e-03  1.943000e-03  1.830500e-03
  1.718000e-03  2.082000e-03  2.446000e-03  2.492000e-03  2.538000e-03  2.833000e-03
  3.128000e-03  3.589000e-03  4.050000e-03  4.391500e-03  4.733000e-03  4.740500e-03
  4.748000e-03  4.824000e-03  4.900000e-03  4.541000e-03  4.182000e-03  4.313000e-03
  4.444000e-03  4.611500e-03  4.779000e-03  5.007000e-03  5.235000e-03  5.396000e-03
  5.557000e-03  5.402500e-03  5.248000e-03  4.719500e-03  4.191000e-03  3.590500e-03
  2.990000e-03  2.817500e-03  2.645000e-03  2.611500e-03  2.578000e-03  2.558000e-03
  2.538000e-03  2.700000e-03  2.862000e-03  2.721000e-03  2.580000e-03  2.973000e-03
  3.366000e-03  4.324000e-03  5.282000e-03  6.576000e-03  7.870000e-03  8.871000e-03
  9.872000e-03  1.005100e-02  1.023000e-02  9.046500e-03  7.863000e-03  6.367000e-03
  4.871000e-03  4.856500e-03  4.842000e-03  5.593500e-03  6.345000e-03  6.998500e-03
  7.652000e-03  7.788500e-03  7.925000e-03  7.197000e-03  6.469000e-03  5.418500e-03
  4.368000e-03  4.082000e-03  3.796000e-03  3.768000e-03  3.740000e-03  3.669500e-03
  3.599000e-03  3.616500e-03  3.634000e-03  3.778500e-03  3.923000e-03  4.214500e-03
  4.506000e-03  4.688000e-03  4.870000e-03  5.270500e-03  5.671000e-03  5.878000e-03
  6.085000e-03  6.441000e-03  6.797000e-03  7.044000e-03  7.291000e-03  7.926000e-03
  8.561000e-03  9.290500e-03  1.002000e-02  1.062500e-02  1.123000e-02  1.174000e-02
  1.225000e-02  1.259500e-02  1.294000e-02  1.323000e-02  1.352000e-02  1.396000e-02
  1.440000e-02  1.499000e-02  1.558000e-02  1.641000e-02  1.724000e-02  1.842000e-02
  1.960000e-02  2.183500e-02  2.407000e-02  2.675500e-02  2.944000e-02  3.189000e-02
  3.434000e-02  3.751000e-02  4.068000e-02  4.483000e-02  4.898000e-02  5.445000e-02
  5.992000e-02  6.640500e-02  7.289000e-02  8.170500e-02  9.052000e-02  1.050100e-01
  1.195000e-01  1.410000e-01  1.625000e-01  2.024500e-01  2.424000e-01  3.015000e-01
  3.606000e-01  4.268000e-01  4.930000e-01  5.640000e-01  6.350000e-01  7.166500e-01
  7.983000e-01  8.726000e-01  9.469000e-01  9.734500e-01  1.000000e+00  9.985500e-01
  9.971000e-01  9.836500e-01  9.702000e-01  9.526000e-01  9.350000e-01  9.179500e-01
  9.009000e-01  8.853500e-01  8.698000e-01  8.606500e-01  8.515000e-01  8.448500e-01
  8.382000e-01  8.352000e-01  8.322000e-01  8.289000e-01  8.256000e-01  8.230000e-01
  8.204000e-01  8.137000e-01  8.070000e-01  7.957000e-01  7.844000e-01  7.669500e-01
  7.495000e-01  7.267500e-01  7.040000e-01  6.911000e-01  6.782000e-01  6.638000e-01
  6.494000e-01  6.313000e-01  6.132000e-01  5.900500e-01  5.669000e-01  5.493000e-01
  5.317000e-01  5.117000e-01  4.917000e-01  4.644000e-01  4.371000e-01  3.943000e-01
  3.515000e-01  3.134000e-01  2.753000e-01  2.484500e-01  2.216000e-01  1.910000e-01
  1.604000e-01  1.385000e-01  1.166000e-01  1.003000e-01  8.400000e-02  7.559000e-02
  6.718000e-02  5.401500e-02  4.085000e-02  3.066500e-02  2.048000e-02  1.700500e-02
  1.353000e-02  1.178000e-02  1.003000e-02  8.900500e-03  7.771000e-03  7.077000e-03
  6.383000e-03  5.874500e-03  5.366000e-03  4.960500e-03  4.555000e-03  4.019500e-03
  3.484000e-03  3.145500e-03  2.807000e-03  2.621000e-03  2.435000e-03  2.331500e-03
  2.228000e-03  2.158000e-03  2.088000e-03  1.973000e-03  1.858000e-03  1.839000e-03
  1.820000e-03  1.861500e-03  1.903000e-03  1.759000e-03  1.615000e-03  1.673500e-03
  1.732000e-03  1.728500e-03  1.725000e-03  1.884000e-03  2.043000e-03  2.092500e-03
  2.142000e-03  2.082500e-03  2.023000e-03  1.963000e-03  1.903000e-03  1.804500e-03
  1.706000e-03  1.756500e-03  1.807000e-03  1.752500e-03  1.698000e-03  1.849000e-03
  2.000000e-03  1.000000e-03  0.000000e+00  0.000000e+00  0.000000e+00  0.000000e+00
  0.000000e+00  0.000000e+00  0.000000e+00  0.000000e+00  0.000000e+00  0.000000e+00
  0.000000e+00  0.000000e+00  0.000000e+00  0.000000e+00  0.000000e+00  0.000000e+00
  0.000000e+00  0.000000e+00  0.000000e+00


