 ---------------------------------------------------------
Inputs values:
   ----->  SolarZenithalAngle :                              30
   ----->  SolarAzimutalAngle :                              0
   ----->  ViewingZenithalAngle :                            45
   ----->  ViewingAzimutalAngle :                            90
   ----->  Month :                                           7
   ----->  Day :                                             15
   ----->  AtmosphericPressure :                             1013
   ----->  WaterVaporAmount :                                1.424
   ----->  OzoneAmount :                                     0.344
   ----->  AerosolModel :                                    1
   ----->  AerosolOptical :                                  0.1
   ----->  MinSpectralValue :                                0.5799999833
   ----->  MaxSpectralValue :                                0.7450000048
   ----->  UserStep :                                        0.002499999944
 ---------------------------------------------------------
Outputs values:
   ----->  atmospheric reflectance :                         0.02571012454
   ----->  atmospheric spherical albedo :                    0.06615032719
   ----->  total gaseous transmission :                      0.9276281895
   ----->  downward transmittance :                          0.9506401393
   ----->  upward transmittance :                            0.9373858634
   ----->  upward diffuse transmittance :                    0.1080476596
   ----->  upward direct transmittance :                     0.8293382038
   ----->  upward diffuse transmittance for rayleigh :       0.03335299806
   ----->  upward diffuse transmittance for aerosols :       0.08156976302
   ----->  MinSpectralValue update:                          0.5799999833
   ----->  MaxSpectralValue update :                         0.7450000048
 ---------------------------------------------------------
Input wavelength band values [67]:
    0
    0
    0
    0
    0
    0
    0
    0.001000000047
    0.002000000095
    0.0120000001
    0.02199999988
    0.06949999928
    0.1169999987
    0.2160000056
    0.3149999976
    0.4244999886
    0.5339999795
    0.6194999814
    0.7049999833
    0.7655000091
    0.8259999752
    0.8640000224
    0.90200001
    0.9269999862
    0.9520000219
    0.9660000205
    0.9800000191
    0.9869999886
    0.9940000176
    0.996999979
    1
    0.9984999895
    0.996999979
    0.9894999862
    0.9819999933
    0.9635000229
    0.9449999928
    0.9039999843
    0.8629999757
    0.7900000215
    0.7170000076
    0.6255000234
    0.5339999795
    0.4449999928
    0.3560000062
    0.2894999981
    0.2230000049
    0.1780000031
    0.1330000013
    0.1059999987
    0.07900000364
    0.06350000203
    0.04800000042
    0.03849999979
    0.02899999917
    0.0234999992
    0.01799999923
    0.01449999958
    0.01099999994
    0.008999999613
    0.007000000216
    0.00549999997
    0.00400000019
    0.003000000026
    0.002000000095
    0.001000000047
    0
 ---------------------------------------------------------
Output wavelength band values 6S [67]:
            0
            0
            0
            0
            0
            0
            0
            0.001000000047
            0.002000000095
            0.0120000001
            0.02199999988
            0.06949999928
            0.1169999987
            0.2160000056
            0.3149999976
            0.4244999886
            0.5339999795
            0.6194999814
            0.7049999833
            0.7655000091
            0.8259999752
            0.8640000224
            0.90200001
            0.9269999862
            0.9520000219
            0.9660000205
            0.9800000191
            0.9869999886
            0.9940000176
            0.996999979
            1
            0.9984999895
            0.996999979
            0.9894999862
            0.9819999933
            0.9635000229
            0.9449999928
            0.9039999843
            0.8629999757
            0.7900000215
            0.7170000076
            0.6255000234
            0.5339999795
            0.4449999928
            0.3560000062
            0.2894999981
            0.2230000049
            0.1780000031
            0.1330000013
            0.1059999987
            0.07900000364
            0.06350000203
            0.04800000042
            0.03849999979
            0.02899999917
            0.0234999992
            0.01799999923
            0.01449999958
            0.01099999994
            0.008999999613
            0.007000000216
            0.00549999997
            0.00400000019
            0.003000000026
            0.002000000095
            0.001000000047
            0

