Name:  Brown to dark brown silt loam
Type:  Soils
Class:  Entisol
Subclass:  Ustifluvent
Particle Size:  see additional information
Sample No.:  82P2230
Owner:  JHU
Wavelength range:  All
Origin:  Near Bait Radam, Yemen via USDA Soil Conservation service.

Description:  Parent material: alluvium.  Brown to dark brown silt 
loam (fine-loamy, mixed-calcareous, isothermic typic ustifluvent).




Measurement:  Directional (10 degree) hemispherical reflectance
First Column:  X
Second Column:  Y
X Units:  Wavelength (micrometers)
Y Units:  Reflectance (percent)
First X Value:  14.0112
Last X Value:  0.4000
Number of X Values:  2844
Additional information:  82P2230a.txt
	
14.983	1.6128
14.94	1.6038
14.897	1.6042
14.854	1.613
14.812	1.6267
14.77	1.6426
14.728	1.6597
14.686	1.6763
14.645	1.6907
14.603	1.6992
14.562	1.697
14.521	1.6785
14.481	1.6416
14.441	1.5879
14.4	1.5247
14.361	1.4634
14.321	1.4167
14.281	1.3948
14.242	1.4016
14.203	1.4343
14.164	1.4832
14.126	1.5366
14.087	1.5835
14.049	1.6165
14.011	1.6348
13.973	1.6406
13.936	1.6396
13.899	1.636
13.861	1.6318
13.824	1.6277
13.788	1.6226
13.751	1.6165
13.715	1.6103
13.679	1.606
13.643	1.606
13.607	1.6106
13.571	1.6194
13.536	1.6304
13.5	1.6406
13.465	1.6489
13.43	1.6553
13.396	1.6616
13.361	1.6697
13.327	1.6814
13.293	1.6956
13.259	1.7095
13.225	1.7183
13.191	1.7183
13.158	1.708
13.124	1.6902
13.091	1.6709
13.058	1.658
13.026	1.6567
12.993	1.6697
12.96	1.6931
12.928	1.7205
12.896	1.7436
12.864	1.7563
12.832	1.7576
12.8	1.75
12.769	1.741
12.737	1.7373
12.706	1.7436
12.675	1.7605
12.644	1.7834
12.614	1.8052
12.583	1.8174
12.552	1.814
12.522	1.7935
12.492	1.7573
12.462	1.7114
12.432	1.6631
12.402	1.6199
12.373	1.5872
12.343	1.5686
12.314	1.5662
12.285	1.5786
12.256	1.6038
12.227	1.6387
12.198	1.6799
12.169	1.7241
12.141	1.77
12.113	1.8166
12.084	1.8647
12.056	1.9133
12.028	1.9612
12	2.0054
11.973	2.043
11.945	2.071
11.918	2.0891
11.89	2.0979
11.863	2.1018
11.836	2.1047
11.809	2.1106
11.782	2.1226
11.755	2.1411
11.729	2.1645
11.702	2.1907
11.676	2.2168
11.65	2.2402
11.624	2.259
11.598	2.2717
11.572	2.2788
11.546	2.2817
11.52	2.2832
11.495	2.2856
11.469	2.2927
11.444	2.3052
11.419	2.3223
11.394	2.343
11.369	2.364
11.344	2.3831
11.319	2.3999
11.294	2.4148
11.27	2.4287
11.245	2.4434
11.221	2.4592
11.197	2.4763
11.173	2.4949
11.149	2.5139
11.125	2.5342
11.101	2.5544
11.077	2.574
11.054	2.5903
11.03	2.5998
11.007	2.5994
10.983	2.5867
10.96	2.5618
10.937	2.5283
10.914	2.4917
10.891	2.4597
10.868	2.439
10.846	2.4353
10.823	2.4512
10.8	2.4846
10.778	2.5305
10.755	2.581
10.733	2.6277
10.711	2.6636
10.689	2.6853
10.667	2.6941
10.645	2.6951
10.623	2.6955
10.602	2.7031
10.58	2.7234
10.558	2.7588
10.537	2.8083
10.516	2.8682
10.494	2.9326
10.473	2.9968
10.452	3.0566
10.431	3.1101
10.41	3.1577
10.389	3.2009
10.368	3.2432
10.348	3.2873
10.327	3.3362
10.306	3.3921
10.286	3.4578
10.266	3.5342
10.245	3.6221
10.225	3.7195
10.205	3.824
10.185	3.9326
10.165	4.042
10.145	4.1506
10.125	4.258
10.106	4.3657
10.086	4.4744
10.066	4.5854
10.047	4.698
10.027	4.8098
10.008	4.9187
9.9887	5.022
9.9695	5.1179
9.9504	5.2063
9.9313	5.2881
9.9123	5.3655
9.8934	5.4407
9.8746	5.5151
9.8558	5.5911
9.8371	5.6699
9.8185	5.7532
9.7999	5.843
9.7814	5.9431
9.763	6.0556
9.7447	6.1821
9.7264	6.321
9.7082	6.4687
9.69	6.618
9.6719	6.763
9.6539	6.898
9.636	7.021
9.6181	7.13
9.6003	7.229
9.5825	7.317
9.5649	7.395
9.5472	7.459
9.5297	7.506
9.5122	7.531
9.4948	7.53
9.4774	7.503
9.4601	7.453
9.4429	7.38
9.4257	7.289
9.4086	7.182
9.3916	7.062
9.3746	6.929
9.3577	6.787
9.3408	6.636
9.324	6.4817
9.3073	6.3269
9.2906	6.1758
9.274	6.032
9.2574	5.897
9.2409	5.7707
9.2245	5.6526
9.2081	5.5412
9.1918	5.4355
9.1755	5.3352
9.1593	5.2407
9.1431	5.1526
9.127	5.0713
9.111	4.9961
9.095	4.9267
9.0791	4.8616
9.0632	4.8
9.0474	4.7432
9.0316	4.6926
9.0159	4.6523
9.0003	4.6262
8.9847	4.6174
8.9691	4.6272
8.9536	4.6543
8.9382	4.6943
8.9228	4.7402
8.9075	4.7849
8.8922	4.821
8.877	4.8432
8.8618	4.8486
8.8467	4.8374
8.8316	4.8122
8.8166	4.7773
8.8016	4.738
8.7867	4.6985
8.7718	4.6604
8.757	4.6221
8.7423	4.5791
8.7275	4.5239
8.7129	4.4504
8.6982	4.3557
8.6837	4.2446
8.6692	4.1274
8.6547	4.022
8.6403	3.9448
8.6259	3.9089
8.6116	3.9187
8.5973	3.9683
8.583	4.0439
8.5688	4.1287
8.5547	4.2053
8.5406	4.2617
8.5266	4.2922
8.5126	4.2978
8.4986	4.2851
8.4847	4.2627
8.4708	4.24
8.457	4.2246
8.4432	4.2217
8.4295	4.2319
8.4158	4.2532
8.4022	4.2825
8.3886	4.3159
8.375	4.3508
8.3615	4.3867
8.3481	4.4233
8.3347	4.4612
8.3213	4.4993
8.3079	4.5373
8.2946	4.5735
8.2814	4.6067
8.2682	4.6357
8.255	4.6594
8.2419	4.6763
8.2288	4.6831
8.2158	4.6763
8.2028	4.6511
8.1898	4.6035
8.1769	4.5322
8.164	4.4382
8.1512	4.3257
8.1384	4.1997
8.1256	4.0664
8.1129	3.9302
8.1002	3.7949
8.0876	3.6628
8.075	3.5356
8.0624	3.4136
8.0499	3.2981
8.0374	3.1894
8.025	3.0879
8.0126	2.9944
8.0002	2.9082
7.9879	2.8291
7.9756	2.7559
7.9634	2.688
7.9512	2.624
7.939	2.5632
7.9268	2.5044
7.9147	2.4477
7.9027	2.3938
7.8906	2.3445
7.8786	2.3013
7.8667	2.2664
7.8548	2.2407
7.8429	2.2246
7.831	2.2168
7.8192	2.2153
7.8075	2.2178
7.7957	2.2214
7.784	2.2239
7.7723	2.2239
7.7607	2.2217
7.7491	2.218
7.7375	2.2143
7.726	2.2112
7.7145	2.2085
7.7031	2.2053
7.6916	2.2007
7.6802	2.1938
7.6689	2.1853
7.6575	2.1768
7.6462	2.1694
7.635	2.166
7.6238	2.1672
7.6126	2.1728
7.6014	2.1811
7.5903	2.1907
7.5792	2.2009
7.5681	2.2107
7.5571	2.2205
7.5461	2.2302
7.5351	2.24
7.5242	2.249
7.5133	2.2561
7.5024	2.2595
7.4916	2.2588
7.4807	2.2546
7.47	2.2488
7.4592	2.2429
7.4485	2.2397
7.4378	2.2395
7.4272	2.2422
7.4165	2.2458
7.4059	2.2485
7.3954	2.249
7.3848	2.2478
7.3743	2.2454
7.3639	2.2439
7.3534	2.2451
7.343	2.2498
7.3326	2.2581
7.3223	2.2685
7.3119	2.2795
7.3016	2.2903
7.2914	2.3008
7.2811	2.3113
7.2709	2.3232
7.2607	2.3376
7.2506	2.3547
7.2404	2.373
7.2303	2.3906
7.2203	2.4043
7.2102	2.4119
7.2002	2.4128
7.1902	2.408
7.1803	2.4001
7.1703	2.3928
7.1604	2.3899
7.1506	2.3931
7.1407	2.404
7.1309	2.4206
7.1211	2.4409
7.1113	2.4619
7.1016	2.4795
7.0919	2.4922
7.0822	2.499
7.0725	2.5005
7.0629	2.4988
7.0533	2.4961
7.0437	2.4946
7.0341	2.4961
7.0246	2.501
7.0151	2.509
7.0056	2.5195
6.9962	2.5317
6.9867	2.5454
6.9773	2.5608
6.9679	2.5791
6.9586	2.6006
6.9493	2.6262
6.94	2.6548
6.9307	2.6843
6.9214	2.7119
6.9122	2.7339
6.903	2.7478
6.8938	2.7534
6.8847	2.7534
6.8755	2.7517
6.8664	2.7534
6.8573	2.7622
6.8483	2.7781
6.8393	2.7996
6.8302	2.8227
6.8213	2.8437
6.8123	2.8608
6.8034	2.876
6.7944	2.8911
6.7855	2.9092
6.7767	2.9316
6.7678	2.9565
6.759	2.9792
6.7502	2.9954
6.7414	3.0015
6.7327	2.998
6.7239	2.9885
6.7152	2.9785
6.7065	2.9729
6.6979	2.9739
6.6892	2.9802
6.6806	2.989
6.672	2.9956
6.6634	2.9976
6.6549	2.9941
6.6464	2.9873
6.6378	2.9795
6.6294	2.9729
6.6209	2.9665
6.6124	2.9597
6.604	2.9504
6.5956	2.938
6.5872	2.9246
6.5789	2.9133
6.5705	2.9082
6.5622	2.9121
6.5539	2.9233
6.5456	2.9387
6.5374	2.9526
6.5292	2.9602
6.5209	2.9604
6.5128	2.956
6.5046	2.9526
6.4964	2.9556
6.4883	2.968
6.4802	2.9875
6.4721	3.0071
6.464	3.0176
6.456	3.0117
6.448	2.9873
6.4399	2.9487
6.432	2.9053
6.424	2.8672
6.416	2.842
6.4081	2.8315
6.4002	2.8313
6.3923	2.8325
6.3844	2.8269
6.3766	2.8091
6.3687	2.7778
6.3609	2.7371
6.3531	2.6921
6.3454	2.6489
6.3376	2.6099
6.3299	2.5754
6.3221	2.5444
6.3144	2.5137
6.3068	2.4805
6.2991	2.4436
6.2914	2.4018
6.2838	2.3555
6.2762	2.3052
6.2686	2.2522
6.2611	2.1982
6.2535	2.1443
6.246	2.0918
6.2385	2.0405
6.231	1.9902
6.2235	1.9402
6.216	1.8899
6.2086	1.8386
6.2011	1.7878
6.1937	1.7395
6.1863	1.696
6.179	1.6587
6.1716	1.6279
6.1643	1.6028
6.157	1.5811
6.1496	1.5601
6.1424	1.5388
6.1351	1.5176
6.1278	1.4978
6.1206	1.4822
6.1134	1.4714
6.1062	1.4663
6.099	1.4648
6.0918	1.4651
6.0847	1.4646
6.0776	1.4626
6.0704	1.4604
6.0633	1.4597
6.0563	1.4626
6.0492	1.4707
6.0421	1.4836
6.0351	1.501
6.0281	1.5207
6.0211	1.542
6.0141	1.5642
6.0071	1.5886
6.0002	1.6169
5.9932	1.6506
5.9863	1.689
5.9794	1.7317
5.9725	1.7751
5.9657	1.8181
5.9588	1.8591
5.952	1.8999
5.9451	1.9436
5.9383	1.9936
5.9315	2.0522
5.9247	2.1194
5.918	2.1931
5.9112	2.271
5.9045	2.3513
5.8978	2.4343
5.8911	2.522
5.8844	2.6162
5.8777	2.717
5.8711	2.8223
5.8644	2.927
5.8578	3.0259
5.8512	3.116
5.8446	3.198
5.838	3.2771
5.8314	3.3594
5.8249	3.4497
5.8184	3.5498
5.8118	3.655
5.8053	3.7571
5.7988	3.8467
5.7923	3.9175
5.7859	3.968
5.7794	4.0034
5.773	4.0332
5.7666	4.0676
5.7602	4.1147
5.7538	4.176
5.7474	4.2495
5.741	4.3288
5.7347	4.4065
5.7283	4.4775
5.722	4.5393
5.7157	4.5925
5.7094	4.6384
5.7031	4.6787
5.6969	4.7134
5.6906	4.7405
5.6844	4.7568
5.6782	4.76
5.6719	4.7488
5.6657	4.7248
5.6596	4.6926
5.6534	4.6582
5.6472	4.6279
5.6411	4.6062
5.6349	4.5945
5.6288	4.5915
5.6227	4.5928
5.6166	4.5935
5.6106	4.5901
5.6045	4.5813
5.5984	4.5688
5.5924	4.5559
5.5864	4.5466
5.5804	4.5449
5.5744	4.5513
5.5684	4.5666
5.5624	4.5896
5.5564	4.6194
5.5505	4.6555
5.5445	4.698
5.5386	4.7466
5.5327	4.8015
5.5268	4.8625
5.5209	4.9277
5.5151	4.9939
5.5092	5.0581
5.5033	5.1164
5.4975	5.167
5.4917	5.2085
5.4859	5.2432
5.4801	5.2742
5.4743	5.3044
5.4685	5.3371
5.4628	5.3721
5.457	5.4065
5.4513	5.4355
5.4455	5.4548
5.4398	5.4614
5.4341	5.4546
5.4284	5.4355
5.4228	5.4075
5.4171	5.3725
5.4114	5.3325
5.4058	5.2866
5.4002	5.2341
5.3945	5.1755
5.3889	5.1123
5.3833	5.0478
5.3778	4.9866
5.3722	4.9333
5.3666	4.8928
5.3611	4.8682
5.3555	4.8599
5.35	4.8674
5.3445	4.8879
5.339	4.9175
5.3335	4.9524
5.328	4.9885
5.3225	5.0244
5.3171	5.0588
5.3116	5.0923
5.3062	5.1267
5.3008	5.164
5.2954	5.2065
5.29	5.2554
5.2846	5.3115
5.2792	5.3757
5.2738	5.4482
5.2684	5.5295
5.2631	5.6196
5.2578	5.7178
5.2524	5.8215
5.2471	5.9282
5.2418	6.0349
5.2365	6.1382
5.2312	6.2366
5.226	6.3291
5.2207	6.416
5.2154	6.4968
5.2102	6.5701
5.205	6.634
5.1998	6.687
5.1945	6.729
5.1893	6.761
5.1842	6.785
5.179	6.804
5.1738	6.821
5.1686	6.839
5.1635	6.855
5.1584	6.871
5.1532	6.887
5.1481	6.904
5.143	6.924
5.1379	6.947
5.1328	6.973
5.1277	7.002
5.1227	7.032
5.1176	7.059
5.1126	7.082
5.1075	7.099
5.1025	7.11
5.0975	7.116
5.0925	7.117
5.0875	7.117
5.0825	7.116
5.0775	7.116
5.0726	7.12
5.0676	7.127
5.0627	7.139
5.0577	7.153
5.0528	7.167
5.0479	7.18
5.043	7.189
5.038	7.194
5.0332	7.195
5.0283	7.191
5.0234	7.188
5.0185	7.188
5.0137	7.195
5.0088	7.214
5.004	7.246
4.9992	7.292
4.9944	7.35
4.9896	7.419
4.9848	7.494
4.98	7.575
4.9752	7.658
4.9704	7.743
4.9657	7.826
4.9609	7.907
4.9562	7.983
4.9514	8.052
4.9467	8.114
4.942	8.171
4.9373	8.224
4.9326	8.279
4.9279	8.339
4.9232	8.408
4.9186	8.487
4.9139	8.579
4.9092	8.682
4.9046	8.793
4.9	8.909
4.8953	9.024
4.8907	9.134
4.8861	9.233
4.8815	9.32
4.8769	9.394
4.8723	9.458
4.8678	9.514
4.8632	9.567
4.8586	9.62
4.8541	9.673
4.8495	9.724
4.845	9.772
4.8405	9.814
4.836	9.848
4.8315	9.875
4.827	9.898
4.8225	9.919
4.818	9.942
4.8135	9.97
4.809	10.001
4.8046	10.035
4.8001	10.068
4.7957	10.101
4.7913	10.132
4.7868	10.162
4.7824	10.191
4.778	10.22
4.7736	10.249
4.7692	10.277
4.7648	10.301
4.7605	10.321
4.7561	10.337
4.7517	10.35
4.7474	10.362
4.7431	10.375
4.7387	10.39
4.7344	10.407
4.7301	10.426
4.7258	10.445
4.7215	10.462
4.7172	10.475
4.7129	10.485
4.7086	10.492
4.7043	10.496
4.7	10.498
4.6958	10.5
4.6915	10.503
4.6873	10.51
4.6831	10.521
4.6788	10.539
4.6746	10.565
4.6704	10.599
4.6662	10.639
4.662	10.684
4.6578	10.731
4.6536	10.778
4.6495	10.822
4.6453	10.865
4.6411	10.906
4.637	10.945
4.6328	10.986
4.6287	11.029
4.6246	11.072
4.6205	11.115
4.6163	11.154
4.6122	11.188
4.6081	11.214
4.604	11.234
4.6	11.25
4.5959	11.267
4.5918	11.288
4.5877	11.317
4.5837	11.353
4.5796	11.393
4.5756	11.434
4.5716	11.473
4.5675	11.507
4.5635	11.535
4.5595	11.557
4.5555	11.574
4.5515	11.589
4.5475	11.601
4.5435	11.612
4.5395	11.623
4.5356	11.636
4.5316	11.649
4.5276	11.663
4.5237	11.674
4.5197	11.682
4.5158	11.687
4.5119	11.69
4.508	11.691
4.504	11.693
4.5001	11.698
4.4962	11.704
4.4923	11.713
4.4884	11.723
4.4846	11.735
4.4807	11.749
4.4768	11.768
4.473	11.794
4.4691	11.827
4.4652	11.867
4.4614	11.913
4.4576	11.961
4.4537	12.007
4.4499	12.05
4.4461	12.09
4.4423	12.126
4.4385	12.163
4.4347	12.2
4.4309	12.238
4.4271	12.278
4.4233	12.317
4.4196	12.356
4.4158	12.393
4.412	12.431
4.4083	12.47
4.4045	12.513
4.4008	12.561
4.3971	12.615
4.3934	12.673
4.3896	12.732
4.3859	12.791
4.3822	12.847
4.3785	12.897
4.3748	12.942
4.3711	12.984
4.3674	13.025
4.3638	13.066
4.3601	13.111
4.3564	13.156
4.3528	13.203
4.3491	13.25
4.3455	13.294
4.3418	13.336
4.3382	13.375
4.3346	13.412
4.331	13.446
4.3273	13.479
4.3237	13.511
4.3201	13.541
4.3165	13.57
4.3129	13.598
4.3094	13.626
4.3058	13.655
4.3022	13.684
4.2986	13.713
4.2951	13.74
4.2915	13.764
4.288	13.785
4.2844	13.804
4.2809	13.823
4.2774	13.847
4.2738	13.879
4.2703	13.921
4.2668	13.973
4.2633	14.032
4.2598	14.095
4.2563	14.154
4.2528	14.206
4.2493	14.246
4.2458	14.276
4.2424	14.299
4.2389	14.321
4.2354	14.348
4.232	14.385
4.2285	14.435
4.2251	14.496
4.2216	14.566
4.2182	14.636
4.2148	14.703
4.2113	14.762
4.2079	14.811
4.2045	14.851
4.2011	14.884
4.1977	14.915
4.1943	14.945
4.1909	14.978
4.1875	15.013
4.1841	15.05
4.1808	15.089
4.1774	15.127
4.174	15.165
4.1707	15.2
4.1673	15.235
4.164	15.271
4.1606	15.309
4.1573	15.351
4.154	15.397
4.1506	15.445
4.1473	15.495
4.144	15.542
4.1407	15.586
4.1374	15.624
4.1341	15.657
4.1308	15.686
4.1275	15.712
4.1242	15.738
4.1209	15.764
4.1177	15.791
4.1144	15.82
4.1111	15.851
4.1079	15.883
4.1046	15.916
4.1014	15.948
4.0981	15.979
4.0949	16.008
4.0917	16.035
4.0884	16.062
4.0852	16.09
4.082	16.118
4.0788	16.148
4.0756	16.181
4.0724	16.216
4.0692	16.252
4.066	16.286
4.0628	16.319
4.0596	16.348
4.0565	16.373
4.0533	16.394
4.0501	16.412
4.047	16.427
4.0438	16.439
4.0406	16.45
4.0375	16.459
4.0344	16.464
4.0312	16.467
4.0281	16.467
4.025	16.466
4.0218	16.465
4.0187	16.467
4.0156	16.471
4.0125	16.476
4.0094	16.481
4.0063	16.481
4.0032	16.475
4.0001	16.461
3.997	16.441
3.994	16.418
3.9909	16.396
3.9878	16.379
3.9847	16.37
3.9817	16.371
3.9786	16.379
3.9756	16.392
3.9725	16.408
3.9695	16.426
3.9665	16.444
3.9634	16.464
3.9604	16.486
3.9574	16.51
3.9544	16.536
3.9513	16.561
3.9483	16.583
3.9453	16.599
3.9423	16.608
3.9393	16.612
3.9363	16.611
3.9333	16.608
3.9304	16.607
3.9274	16.608
3.9244	16.61
3.9214	16.613
3.9185	16.614
3.9155	16.612
3.9126	16.605
3.9096	16.595
3.9067	16.581
3.9037	16.566
3.9008	16.549
3.8979	16.532
3.8949	16.515
3.892	16.498
3.8891	16.481
3.8862	16.464
3.8833	16.448
3.8804	16.431
3.8775	16.414
3.8746	16.396
3.8717	16.374
3.8688	16.349
3.8659	16.323
3.863	16.296
3.8601	16.27
3.8573	16.246
3.8544	16.226
3.8515	16.209
3.8487	16.195
3.8458	16.182
3.843	16.17
3.8401	16.156
3.8373	16.14
3.8344	16.119
3.8316	16.094
3.8288	16.065
3.8259	16.032
3.8231	15.996
3.8203	15.96
3.8175	15.924
3.8147	15.889
3.8119	15.857
3.8091	15.826
3.8063	15.797
3.8035	15.769
3.8007	15.74
3.7979	15.709
3.7951	15.676
3.7924	15.64
3.7896	15.603
3.7868	15.564
3.7841	15.525
3.7813	15.485
3.7785	15.445
3.7758	15.403
3.773	15.359
3.7703	15.312
3.7676	15.264
3.7648	15.214
3.7621	15.165
3.7594	15.118
3.7566	15.073
3.7539	15.029
3.7512	14.985
3.7485	14.938
3.7458	14.89
3.7431	14.839
3.7404	14.786
3.7377	14.731
3.735	14.677
3.7323	14.625
3.7296	14.574
3.7269	14.526
3.7242	14.481
3.7216	14.436
3.7189	14.391
3.7162	14.344
3.7136	14.293
3.7109	14.238
3.7083	14.181
3.7056	14.123
3.703	14.067
3.7003	14.014
3.6977	13.965
3.695	13.918
3.6924	13.873
3.6898	13.827
3.6872	13.779
3.6845	13.729
3.6819	13.677
3.6793	13.626
3.6767	13.575
3.6741	13.524
3.6715	13.474
3.6689	13.423
3.6663	13.371
3.6637	13.318
3.6611	13.263
3.6585	13.207
3.656	13.149
3.6534	13.09
3.6508	13.031
3.6482	12.971
3.6457	12.91
3.6431	12.85
3.6406	12.791
3.638	12.735
3.6355	12.682
3.6329	12.632
3.6304	12.583
3.6278	12.535
3.6253	12.484
3.6227	12.43
3.6202	12.372
3.6177	12.309
3.6152	12.245
3.6127	12.179
3.6101	12.113
3.6076	12.05
3.6051	11.988
3.6026	11.929
3.6001	11.873
3.5976	11.821
3.5951	11.773
3.5926	11.728
3.5901	11.683
3.5876	11.637
3.5852	11.587
3.5827	11.532
3.5802	11.471
3.5777	11.405
3.5753	11.334
3.5728	11.261
3.5704	11.186
3.5679	11.111
3.5654	11.036
3.563	10.962
3.5605	10.888
3.5581	10.815
3.5557	10.742
3.5532	10.669
3.5508	10.597
3.5484	10.528
3.5459	10.464
3.5435	10.405
3.5411	10.354
3.5387	10.307
3.5363	10.263
3.5338	10.216
3.5314	10.164
3.529	10.103
3.5266	10.033
3.5242	9.955
3.5218	9.873
3.5195	9.789
3.5171	9.706
3.5147	9.625
3.5123	9.547
3.5099	9.471
3.5075	9.396
3.5052	9.323
3.5028	9.253
3.5004	9.184
3.4981	9.119
3.4957	9.057
3.4934	8.998
3.491	8.943
3.4887	8.888
3.4863	8.836
3.484	8.783
3.4816	8.732
3.4793	8.68
3.477	8.628
3.4746	8.576
3.4723	8.524
3.47	8.473
3.4677	8.426
3.4653	8.383
3.463	8.345
3.4607	8.308
3.4584	8.271
3.4561	8.23
3.4538	8.182
3.4515	8.127
3.4492	8.063
3.4469	7.992
3.4446	7.917
3.4423	7.837
3.44	7.757
3.4378	7.678
3.4355	7.601
3.4332	7.53
3.4309	7.464
3.4287	7.404
3.4264	7.346
3.4241	7.289
3.4219	7.232
3.4196	7.171
3.4174	7.109
3.4151	7.048
3.4129	6.99
3.4106	6.938
3.4084	6.892
3.4061	6.853
3.4039	6.819
3.4017	6.791
3.3994	6.764
3.3972	6.736
3.395	6.706
3.3928	6.671
3.3906	6.629
3.3883	6.5827
3.3861	6.5322
3.3839	6.4805
3.3817	6.4299
3.3795	6.3826
3.3773	6.3386
3.3751	6.2973
3.3729	6.2573
3.3707	6.2165
3.3685	6.1728
3.3663	6.1264
3.3641	6.0776
3.362	6.0278
3.3598	5.9783
3.3576	5.9302
3.3554	5.8835
3.3533	5.8379
3.3511	5.792
3.3489	5.7444
3.3468	5.6943
3.3446	5.6426
3.3425	5.5903
3.3403	5.5403
3.3382	5.4941
3.336	5.4526
3.3339	5.4158
3.3317	5.3823
3.3296	5.3508
3.3274	5.3205
3.3253	5.2895
3.3232	5.2576
3.321	5.2231
3.3189	5.1858
3.3168	5.145
3.3147	5.1015
3.3126	5.0564
3.3104	5.0105
3.3083	4.9651
3.3062	4.9211
3.3041	4.8786
3.302	4.8364
3.2999	4.7937
3.2978	4.7495
3.2957	4.7038
3.2936	4.657
3.2915	4.6103
3.2894	4.5649
3.2874	4.522
3.2853	4.4824
3.2832	4.4465
3.2811	4.4141
3.279	4.3838
3.277	4.355
3.2749	4.3266
3.2728	4.2971
3.2708	4.2651
3.2687	4.2297
3.2666	4.1899
3.2646	4.1462
3.2625	4.0996
3.2605	4.0522
3.2584	4.0063
3.2564	3.9646
3.2543	3.9282
3.2523	3.8977
3.2503	3.8716
3.2482	3.8476
3.2462	3.8242
3.2442	3.8
3.2421	3.7742
3.2401	3.7466
3.2381	3.718
3.2361	3.6877
3.234	3.6565
3.232	3.6245
3.23	3.5923
3.228	3.5605
3.226	3.5298
3.224	3.5007
3.222	3.4719
3.22	3.4434
3.218	3.4141
3.216	3.3838
3.214	3.3525
3.212	3.3218
3.21	3.2917
3.208	3.2629
3.206	3.2351
3.2041	3.2082
3.2021	3.1816
3.2001	3.1548
3.1981	3.1279
3.1961	3.1013
3.1942	3.0754
3.1922	3.0513
3.1902	3.0303
3.1883	3.0129
3.1863	2.9995
3.1844	2.9895
3.1824	2.9802
3.1805	2.9702
3.1785	2.9563
3.1766	2.9375
3.1746	2.9136
3.1727	2.8852
3.1707	2.8545
3.1688	2.8227
3.1669	2.7915
3.1649	2.7622
3.163	2.7356
3.1611	2.7124
3.1591	2.6926
3.1572	2.676
3.1553	2.6601
3.1534	2.6435
3.1515	2.623
3.1495	2.5984
3.1476	2.5696
3.1457	2.5378
3.1438	2.5066
3.1419	2.4778
3.14	2.4534
3.1381	2.4336
3.1362	2.418
3.1343	2.405
3.1324	2.3935
3.1305	2.3831
3.1286	2.3733
3.1268	2.3643
3.1249	2.3555
3.123	2.3455
3.1211	2.333
3.1192	2.3171
3.1174	2.2974
3.1155	2.2759
3.1136	2.2551
3.1117	2.2383
3.1099	2.2275
3.108	2.2224
3.1061	2.2209
3.1043	2.2205
3.1024	2.2183
3.1006	2.2131
3.0987	2.2046
3.0969	2.1934
3.095	2.1797
3.0932	2.1636
3.0913	2.1445
3.0895	2.1233
3.0876	2.1018
3.0858	2.0828
3.084	2.0698
3.0821	2.0652
3.0803	2.0686
3.0785	2.0771
3.0766	2.0859
3.0748	2.0898
3.073	2.085
3.0712	2.071
3.0694	2.0508
3.0675	2.0288
3.0657	2.0105
3.0639	1.999
3.0621	1.9954
3.0603	1.9971
3.0585	2.0007
3.0567	2.0034
3.0549	2.0032
3.0531	1.9998
3.0513	1.9946
3.0495	1.9885
3.0477	1.9836
3.0459	1.9797
3.0441	1.977
3.0423	1.9753
3.0406	1.9739
3.0388	1.9727
3.037	1.9707
3.0352	1.9673
3.0334	1.9619
3.0317	1.9553
3.0299	1.9482
3.0281	1.9429
3.0264	1.9409
3.0246	1.9441
3.0228	1.9507
3.0211	1.9592
3.0193	1.9646
3.0176	1.9636
3.0158	1.9541
3.014	1.9368
3.0123	1.9141
3.0105	1.8909
3.0088	1.8706
3.007	1.8557
3.0053	1.8474
3.0036	1.8442
3.0018	1.8447
3.0001	1.8477
2.9984	1.8508
2.9966	1.8538
2.9949	1.8542
2.9932	1.852
2.9914	1.8452
2.9897	1.8342
2.988	1.8193
2.9863	1.8032
2.9845	1.7881
2.9828	1.7764
2.9811	1.7695
2.9794	1.7671
2.9777	1.7683
2.976	1.771
2.9743	1.7729
2.9726	1.7715
2.9709	1.7656
2.9692	1.7549
2.9675	1.741
2.9658	1.7268
2.9641	1.7161
2.9624	1.7114
2.9607	1.7144
2.959	1.7227
2.9573	1.7327
2.9556	1.7395
2.9539	1.7397
2.9523	1.7329
2.9506	1.7205
2.9489	1.7063
2.9472	1.6948
2.9455	1.6894
2.9439	1.6919
2.9422	1.7014
2.9405	1.7165
2.9389	1.7349
2.9372	1.7544
2.9355	1.772
2.9339	1.7852
2.9322	1.7915
2.9306	1.7891
2.9289	1.7773
2.9272	1.7583
2.9256	1.7344
2.9239	1.7107
2.9223	1.6916
2.9207	1.6797
2.919	1.6768
2.9174	1.6819
2.9157	1.6921
2.9141	1.7036
2.9124	1.7129
2.9108	1.7178
2.9092	1.7168
2.9075	1.7119
2.9059	1.7061
2.9043	1.7029
2.9027	1.7053
2.901	1.7141
2.8994	1.728
2.8978	1.7441
2.8962	1.7585
2.8946	1.7688
2.8929	1.7727
2.8913	1.771
2.8897	1.7664
2.8881	1.7612
2.8865	1.7595
2.8849	1.7634
2.8833	1.7737
2.8817	1.7881
2.8801	1.8027
2.8785	1.8132
2.8769	1.8152
2.8753	1.8069
2.8737	1.79
2.8721	1.7686
2.8705	1.7476
2.8689	1.7336
2.8673	1.7288
2.8658	1.7339
2.8642	1.7461
2.8626	1.7605
2.861	1.7732
2.8594	1.7812
2.8579	1.7837
2.8563	1.7825
2.8547	1.7805
2.8531	1.7795
2.8516	1.7812
2.85	1.7852
2.8484	1.7903
2.8469	1.7942
2.8453	1.7944
2.8437	1.7913
2.8422	1.7852
2.8406	1.7776
2.8391	1.7707
2.8375	1.7668
2.836	1.7659
2.8344	1.7673
2.8329	1.769
2.8313	1.7681
2.8298	1.7632
2.8282	1.7539
2.8267	1.7422
2.8252	1.7307
2.8236	1.7222
2.8221	1.7178
2.8205	1.7173
2.819	1.7192
2.8175	1.7217
2.8159	1.7234
2.8144	1.7253
2.8129	1.728
2.8114	1.7319
2.8098	1.7358
2.8083	1.7393
2.8068	1.7397
2.8053	1.7363
2.8038	1.73
2.8022	1.7222
2.8007	1.7153
2.7992	1.7107
2.7977	1.709
2.7962	1.7078
2.7947	1.7051
2.7932	1.699
2.7917	1.689
2.7902	1.6763
2.7887	1.6633
2.7872	1.6528
2.7857	1.6472
2.7842	1.646
2.7827	1.6479
2.7812	1.6504
2.7797	1.6497
2.7782	1.6436
2.7767	1.6318
2.7752	1.6157
2.7738	1.5974
2.7723	1.5793
2.7708	1.5637
2.7693	1.5508
2.7678	1.5408
2.7664	1.5327
2.7649	1.5269
2.7634	1.5227
2.7619	1.5207
2.7605	1.5212
2.759	1.5237
2.7575	1.5271
2.7561	1.5308
2.7546	1.5349
2.7531	1.541
2.7517	1.5505
2.7502	1.5657
2.7488	1.5864
2.7473	1.6121
2.7458	1.6394
2.7444	1.6658
2.7429	1.6892
2.7415	1.7102
2.74	1.7322
2.7386	1.7602
2.7371	1.8
2.7357	1.8542
2.7343	1.9219
2.7328	1.9973
2.7314	2.0725
2.7299	2.1406
2.7285	2.1973
2.7271	2.2439
2.7256	2.2873
2.7242	2.3376
2.7228	2.4036
2.7213	2.4893
2.7199	2.5925
2.7185	2.7036
2.7171	2.8083
2.7156	2.8926
2.7142	2.9463
2.7128	2.9665
2.7114	2.9585
2.71	2.9341
2.7085	2.9082
2.7071	2.8965
2.7057	2.9123
2.7043	2.9648
2.7029	3.061
2.7015	3.2058
2.7001	3.404
2.6987	3.6619
2.6973	3.9856
2.6959	4.3806
2.6945	4.8474
2.6931	5.3806
2.6917	5.9663
2.6903	6.5835
2.6889	7.206
2.6875	7.809
2.6861	8.368
2.6847	8.869
2.6833	9.309
2.6819	9.691
2.6805	10.025
2.6791	10.32
2.6778	10.587
2.6764	10.827
2.675	11.039
2.6736	11.224
2.6722	11.385
2.6709	11.531
2.6695	11.679
2.6681	11.847
2.6667	12.046
2.6654	12.28
2.664	12.541
2.6626	12.812
2.6613	13.071
2.6599	13.303
2.6585	13.5
2.6572	13.664
2.6558	13.803
2.6545	13.929
2.6531	14.05
2.6517	14.169
2.6504	14.285
2.649	14.395
2.6477	14.495
2.6463	14.588
2.645	14.677
2.6436	14.765
2.6423	14.855
2.6409	14.941
2.6396	15.017
2.6382	15.072
2.6369	15.1
2.6356	15.103
2.6342	15.09
2.6329	15.078
2.6315	15.084
2.6302	15.119
2.6289	15.184
2.6275	15.269
2.6262	15.353
2.6249	15.418
2.6236	15.453
2.6222	15.46
2.6209	15.456
2.6196	15.463
2.6183	15.501
2.6169	15.576
2.6156	15.678
2.6143	15.785
2.613	15.867
2.6117	15.904
2.6103	15.892
2.609	15.848
2.6077	15.799
2.6064	15.772
2.6051	15.785
2.6038	15.833
2.6025	15.893
2.6012	15.934
2.5999	15.934
2.5986	15.892
2.5973	15.827
2.596	15.772
2.5947	15.759
2.5934	15.805
2.5921	15.9
2.5908	16.019
2.5895	16.131
2.5882	16.21
2.5869	16.253
2.5856	16.27
2.5843	16.281
2.583	16.303
2.5817	16.344
2.5805	16.398
2.5792	16.451
2.5779	16.492
2.5766	16.515
2.5753	16.524
2.5741	16.529
2.5728	16.539
2.5715	16.559
2.5702	16.586
2.569	16.61
2.5677	16.621
2.5664	16.617
2.5651	16.603
2.5639	16.591
2.5626	16.597
2.5613	16.63
2.5601	16.692
2.5588	16.773
2.5575	16.858
2.5563	16.931
2.555	16.981
2.5538	17.006
2.5525	17.014
2.5513	17.015
2.55	17.018
2.5487	17.028
2.5475	17.045
2.5462	17.067
2.545	17.087
2.5437	17.103
2.5425	17.112
2.5413	17.115
2.54	17.115
2.5388	17.114
2.5375	17.113
2.5363	17.117
2.535	17.126
2.5338	17.142
2.5326	17.167
2.5313	17.197
2.5301	17.231
2.5289	17.263
2.5276	17.292
2.5264	17.316
2.5252	17.336
2.5239	17.355
2.5227	17.376
2.5215	17.401
2.5202	17.429
2.519	17.457
2.5178	17.481
2.5166	17.499
2.5154	17.509
2.5141	17.516
2.5129	17.523
2.5117	17.537
2.5105	17.56
2.5093	17.592
2.5081	17.629
2.5068	17.666
2.5056	17.695
2.5044	17.714
2.5032	17.721
2.502	17.72
2.5008	17.717
2.4996	17.718
2.4984	17.73
2.4972	17.755
2.496	17.793
2.4948	17.842
2.4936	17.894
2.4924	17.943
2.4912	17.984
2.49	18.013
2.4888	18.031
2.4876	18.041
2.4864	18.047
2.4852	18.055
2.484	18.068
2.4828	18.088
2.4816	18.117
2.4805	18.152
2.4793	18.193
2.4781	18.238
2.4769	18.286
2.4757	18.335
2.4745	18.383
2.4734	18.426
2.4722	18.464
2.471	18.494
2.4698	18.513
2.4686	18.522
2.4675	18.525
2.4663	18.524
2.4651	18.527
2.464	18.538
2.4628	18.561
2.4616	18.596
2.4604	18.641
2.4593	18.689
2.4581	18.735
2.4569	18.774
2.4558	18.805
2.4546	18.827
2.4535	18.844
2.4523	18.859
2.4511	18.875
2.45	18.892
2.4488	18.913
2.4477	18.936
2.4465	18.959
2.4454	18.98
2.4442	19
2.4431	19.019
2.4419	19.037
2.4408	19.056
2.4396	19.076
2.4385	19.099
2.4373	19.126
2.4362	19.157
2.435	19.195
2.4339	19.239
2.4327	19.289
2.4316	19.343
2.4305	19.396
2.4293	19.445
2.4282	19.485
2.427	19.516
2.4259	19.539
2.4248	19.561
2.4236	19.586
2.4225	19.62
2.4214	19.664
2.4202	19.717
2.4191	19.772
2.418	19.823
2.4169	19.864
2.4157	19.892
2.4146	19.909
2.4135	19.918
2.4124	19.927
2.4112	19.942
2.4101	19.965
2.409	19.995
2.4079	20.031
2.4068	20.066
2.4056	20.097
2.4045	20.121
2.4034	20.138
2.4023	20.15
2.4012	20.161
2.4001	20.173
2.399	20.186
2.3979	20.201
2.3967	20.215
2.3956	20.225
2.3945	20.23
2.3934	20.231
2.3923	20.231
2.3912	20.235
2.3901	20.25
2.389	20.275
2.3879	20.31
2.3868	20.349
2.3857	20.386
2.3846	20.416
2.3835	20.436
2.3824	20.449
2.3813	20.459
2.3802	20.472
2.3791	20.492
2.3781	20.519
2.377	20.553
2.3759	20.591
2.3748	20.631
2.3737	20.67
2.3726	20.708
2.3715	20.746
2.3704	20.782
2.3694	20.816
2.3683	20.848
2.3672	20.875
2.3661	20.897
2.365	20.915
2.364	20.929
2.3629	20.941
2.3618	20.952
2.3607	20.961
2.3597	20.968
2.3586	20.971
2.3575	20.973
2.3564	20.973
2.3554	20.976
2.3543	20.984
2.3532	20.998
2.3522	21.02
2.3511	21.047
2.35	21.078
2.349	21.111
2.3479	21.146
2.3468	21.181
2.3458	21.215
2.3447	21.246
2.3436	21.274
2.3426	21.295
2.3415	21.31
2.3405	21.32
2.3394	21.329
2.3384	21.344
2.3373	21.369
2.3363	21.405
2.3352	21.45
2.3342	21.497
2.3331	21.538
2.3321	21.565
2.331	21.575
2.33	21.572
2.3289	21.56
2.3279	21.551
2.3268	21.551
2.3258	21.568
2.3247	21.599
2.3237	21.641
2.3226	21.69
2.3216	21.738
2.3206	21.78
2.3195	21.812
2.3185	21.834
2.3175	21.845
2.3164	21.847
2.3154	21.843
2.3144	21.839
2.3133	21.836
2.3123	21.838
2.3113	21.847
2.3102	21.863
2.3092	21.884
2.3082	21.909
2.3071	21.938
2.3061	21.968
2.3051	21.999
2.3041	22.027
2.303	22.05
2.302	22.066
2.301	22.074
2.3	22.077
2.299	22.078
2.2979	22.081
2.2969	22.09
2.2959	22.107
2.2949	22.129
2.2939	22.153
2.2929	22.174
2.2918	22.187
2.2908	22.19
2.2898	22.186
2.2888	22.179
2.2878	22.176
2.2868	22.179
2.2858	22.193
2.2848	22.215
2.2838	22.242
2.2828	22.269
2.2818	22.291
2.2808	22.309
2.2798	22.324
2.2787	22.34
2.2777	22.36
2.2767	22.386
2.2757	22.416
2.2747	22.445
2.2738	22.472
2.2728	22.492
2.2718	22.508
2.2708	22.521
2.2698	22.535
2.2688	22.551
2.2678	22.57
2.2668	22.588
2.2658	22.601
2.2648	22.604
2.2638	22.593
2.2628	22.567
2.2618	22.527
2.2609	22.48
2.2599	22.43
2.2589	22.386
2.2579	22.352
2.2569	22.332
2.2559	22.325
2.255	22.328
2.254	22.336
2.253	22.343
2.252	22.346
2.251	22.341
2.2501	22.329
2.2491	22.31
2.2481	22.289
2.2471	22.268
2.2462	22.249
2.2452	22.232
2.2442	22.22
2.2433	22.213
2.2423	22.21
2.2413	22.213
2.2403	22.22
2.2394	22.231
2.2384	22.245
2.2374	22.26
2.2365	22.276
2.2355	22.294
2.2345	22.314
2.2336	22.337
2.2326	22.361
2.2317	22.384
2.2307	22.403
2.2297	22.41
2.2288	22.403
2.2278	22.379
2.2269	22.34
2.2259	22.293
2.225	22.245
2.224	22.206
2.2231	22.181
2.2221	22.172
2.2211	22.176
2.2202	22.182
2.2192	22.181
2.2183	22.163
2.2173	22.124
2.2164	22.064
2.2155	21.988
2.2145	21.906
2.2136	21.828
2.2126	21.761
2.2117	21.712
2.2107	21.683
2.2098	21.673
2.2088	21.679
2.2079	21.699
2.207	21.729
2.206	21.77
2.2051	21.818
2.2041	21.872
2.2032	21.929
2.2023	21.985
2.2013	22.036
2.2004	22.081
2.1995	22.119
2.1985	22.151
2.1976	22.18
2.1967	22.206
2.1957	22.231
2.1948	22.253
2.1939	22.271
2.193	22.286
2.192	22.297
2.1911	22.308
2.1902	22.323
2.1893	22.346
2.1883	22.379
2.1874	22.424
2.1865	22.479
2.1856	22.541
2.1846	22.605
2.1837	22.666
2.1828	22.719
2.1819	22.762
2.181	22.796
2.18	22.823
2.1791	22.847
2.1782	22.87
2.1773	22.893
2.1764	22.913
2.1755	22.928
2.1746	22.935
2.1736	22.935
2.1727	22.931
2.1718	22.929
2.1709	22.937
2.17	22.959
2.1691	22.993
2.1682	23.036
2.1673	23.079
2.1664	23.112
2.1655	23.132
2.1646	23.137
2.1637	23.131
2.1628	23.121
2.1619	23.115
2.161	23.116
2.1601	23.127
2.1592	23.148
2.1583	23.175
2.1574	23.204
2.1565	23.235
2.1556	23.265
2.1547	23.296
2.1538	23.327
2.1529	23.358
2.152	23.385
2.1511	23.404
2.1502	23.413
2.1493	23.412
2.1484	23.404
2.1475	23.395
2.1466	23.388
2.1458	23.39
2.1449	23.399
2.144	23.414
2.1431	23.43
2.1422	23.444
2.1413	23.455
2.1404	23.464
2.1396	23.472
2.1387	23.482
2.1378	23.492
2.1369	23.503
2.136	23.513
2.1352	23.522
2.1343	23.53
2.1334	23.534
2.1325	23.537
2.1316	23.539
2.1308	23.541
2.1299	23.542
2.129	23.546
2.1281	23.551
2.1273	23.556
2.1264	23.559
2.1255	23.556
2.1247	23.544
2.1238	23.521
2.1229	23.485
2.122	23.44
2.1212	23.391
2.1203	23.343
2.1194	23.303
2.1186	23.277
2.1177	23.266
2.1168	23.27
2.116	23.286
2.1151	23.308
2.1143	23.334
2.1134	23.359
2.1125	23.381
2.1117	23.4
2.1108	23.412
2.11	23.418
2.1091	23.416
2.1082	23.405
2.1074	23.385
2.1065	23.357
2.1057	23.324
2.1048	23.291
2.104	23.264
2.1031	23.247
2.1023	23.245
2.1014	23.256
2.1005	23.277
2.0997	23.3
2.0988	23.319
2.098	23.331
2.0971	23.338
2.0963	23.345
2.0955	23.358
2.0946	23.379
2.0938	23.409
2.0929	23.439
2.0921	23.464
2.0912	23.476
2.0904	23.476
2.0895	23.466
2.0887	23.451
2.0879	23.437
2.087	23.424
2.0862	23.406
2.0853	23.383
2.0845	23.342
2.0837	23.293
2.0828	23.257
2.082	23.195
2.0812	23.229
2.0803	23.291
2.0795	23.311
2.076	23.311
2.072	23.049
2.068	23.174
2.064	23.185
2.06	23.099
2.056	23.017
2.052	22.892
2.048	22.784
2.044	22.687
2.04	22.704
2.036	22.731
2.032	22.607
2.028	22.333
2.024	22.483
2.02	22.307
2.016	22.01
2.012	21.862
2.008	21.862
2.004	21.714
2	21.259
1.996	21.184
1.992	20.9
1.988	20.778
1.984	20.682
1.98	20.513
1.976	20.273
1.972	20.153
1.968	20.009
1.964	19.771
1.96	19.367
1.956	19.272
1.952	19.127
1.948	19.055
1.944	19.005
1.94	18.86
1.936	18.775
1.932	18.318
1.928	18.028
1.924	17.729
1.92	17.557
1.916	17.288
1.912	16.92
1.908	16.683
1.904	16.662
1.9	17.05
1.896	17.575
1.892	18.061
1.888	18.855
1.884	19.498
1.88	20.249
1.876	20.671
1.872	20.783
1.868	21.207
1.864	21.973
1.86	22.634
1.856	23.254
1.852	22.999
1.848	22.769
1.844	22.582
1.84	22.318
1.836	22.156
1.832	22.231
1.828	22.579
1.824	22.73
1.82	22.73
1.816	22.663
1.812	22.637
1.808	22.503
1.804	22.663
1.8	22.587
1.796	22.663
1.792	22.756
1.788	22.756
1.784	22.654
1.78	22.73
1.776	22.772
1.772	22.258
1.768	22.073
1.764	21.821
1.76	21.845
1.756	21.753
1.752	21.845
1.748	22.073
1.744	22.233
1.74	22.208
1.736	22.173
1.732	22.105
1.728	22.13
1.724	22.249
1.72	22.5
1.716	22.645
1.712	22.518
1.708	22.273
1.704	22.298
1.7	22.123
1.696	22.215
1.692	22.024
1.688	22.166
1.684	22.492
1.68	22.593
1.676	22.391
1.672	21.963
1.668	21.895
1.664	22.13
1.66	22.055
1.656	22.13
1.652	22.255
1.648	22.205
1.644	22.173
1.64	22.24
1.636	22.273
1.632	22.087
1.628	22.162
1.624	22.119
1.62	22.105
1.616	21.625
1.612	21.508
1.608	21.411
1.604	21.387
1.6	21.508
1.596	21.501
1.592	21.416
1.588	21.586
1.584	21.63
1.58	21.81
1.576	21.479
1.572	21.268
1.568	21.508
1.564	21.44
1.56	21.251
1.556	21.271
1.552	21.557
1.548	21.464
1.544	21.44
1.54	21.423
1.536	21.391
1.532	21.166
1.528	21.299
1.524	21.306
1.52	21.214
1.516	20.984
1.512	20.868
1.508	20.939
1.504	20.846
1.5	20.654
1.496	20.749
1.492	20.942
1.488	20.782
1.484	20.916
1.48	20.892
1.476	20.844
1.472	20.733
1.468	20.757
1.464	20.687
1.46	20.513
1.456	20.477
1.452	20.221
1.448	19.979
1.444	20.081
1.44	20.011
1.436	19.836
1.432	19.905
1.428	19.88
1.424	19.692
1.42	19.669
1.416	19.414
1.412	19.04
1.408	18.919
1.404	18.98
1.4	19.137
1.396	19.322
1.392	19.493
1.388	20.037
1.384	20.465
1.38	20.252
1.376	20.612
1.372	21.45
1.368	21.616
1.364	20.919
1.36	21.309
1.356	20.942
1.352	21.424
1.348	21.808
1.344	21.32
1.34	20.903
1.336	20.756
1.332	20.81
1.328	20.787
1.324	20.926
1.32	20.88
1.316	20.834
1.312	20.81
1.308	20.787
1.304	20.595
1.3	20.709
1.296	20.927
1.292	20.615
1.288	20.638
1.284	20.591
1.28	20.66
1.276	20.682
1.272	20.705
1.268	20.468
1.264	20.564
1.26	20.576
1.256	20.445
1.252	20.538
1.248	20.964
1.244	20.804
1.24	20.757
1.236	20.804
1.232	20.827
1.228	20.639
1.224	20.406
1.22	20.219
1.216	20.429
1.212	20.498
1.208	20.219
1.204	20.198
1.2	20.198
1.196	20.198
1.192	20.387
1.188	20.318
1.184	20.207
1.18	20.14
1.176	20.14
1.172	20.189
1.168	20.166
1.164	20.05
1.16	19.82
1.156	19.771
1.152	19.656
1.148	19.744
1.144	19.855
1.14	20.156
1.136	20.179
1.132	20.102
1.128	19.638
1.124	19.727
1.12	19.705
1.116	19.449
1.112	19.311
1.108	19.605
1.104	19.481
1.1	19.18
1.096	19.222
1.092	19.3
1.088	19.249
1.084	19.018
1.08	19.255
1.076	19.236
1.072	19.139
1.068	19.19
1.064	19.084
1.06	18.959
1.056	19.005
1.052	18.89
1.048	18.74
1.044	18.844
1.04	18.74
1.036	18.678
1.032	18.661
1.028	18.651
1.024	18.662
1.02	18.583
1.016	18.437
1.012	18.155
1.008	18.114
1.004	18.059
1	18.339
0.996	18.173
0.992	18.045
0.988	18.432
0.984	17.737
0.98	17.579
0.976	17.758
0.972	17.819
0.968	17.712
0.964	17.672
0.96	17.754
0.956	17.815
0.952	17.66
0.948	17.339
0.944	17.6
0.94	17.466
0.936	17.22
0.932	17.26
0.928	17.186
0.924	17.155
0.92	17.068
0.916	17.122
0.912	17.214
0.908	16.917
0.904	17.003
0.9	16.911
0.896	16.818
0.892	16.614
0.888	16.71
0.884	16.742
0.88	16.543
0.876	16.707
0.872	16.614
0.868	16.353
0.864	16.43
0.86	16.452
0.856	16.49
0.852	16.396
0.848	16.132
0.844	16.132
0.84	16.189
0.836	16.095
0.832	16.033
0.828	16.114
0.824	16.133
0.82	15.886
0.816	15.83
0.812	15.886
0.808	15.687
0.804	15.705
0.8	15.502
0.799	15.502
0.798	15.502
0.797	15.561
0.796	15.799
0.795	15.7
0.794	15.638
0.793	15.679
0.792	15.42
0.791	15.538
0.79	15.44
0.789	15.4
0.788	15.44
0.787	15.242
0.786	15.301
0.785	15.241
0.784	15.241
0.783	15.301
0.782	15.621
0.781	15.539
0.78	15.301
0.779	15.378
0.778	15.338
0.777	15.38
0.776	15.261
0.775	15.502
0.774	15.421
0.773	15.399
0.772	15.239
0.771	15.082
0.77	15.279
0.769	15.102
0.768	15.239
0.767	15.477
0.766	15.299
0.765	15.1
0.764	15.041
0.763	15.202
0.762	15.161
0.761	15.021
0.76	14.922
0.759	14.882
0.758	14.902
0.757	14.981
0.756	14.981
0.755	14.901
0.754	15.001
0.753	14.901
0.752	14.901
0.751	14.782
0.75	14.901
0.749	14.701
0.748	14.623
0.747	14.682
0.746	14.602
0.745	14.701
0.744	14.621
0.743	14.701
0.742	14.601
0.741	14.601
0.74	14.741
0.739	14.621
0.738	14.541
0.737	14.521
0.736	14.74
0.735	14.5
0.734	14.5
0.733	14.539
0.732	14.5
0.731	14.382
0.73	14.361
0.729	14.122
0.728	14.122
0.727	14.141
0.726	13.946
0.725	13.984
0.724	13.927
0.723	13.941
0.722	14.102
0.721	13.926
0.72	13.827
0.719	13.798
0.718	13.836
0.717	14.073
0.716	14.011
0.715	14.011
0.714	13.806
0.713	13.73
0.712	13.553
0.711	13.629
0.71	13.629
0.709	13.611
0.708	13.447
0.707	13.547
0.706	13.509
0.705	13.528
0.704	13.39
0.703	13.289
0.702	13.301
0.701	13.357
0.7	13.254
0.699	13.987
0.698	13.217
0.697	13.013
0.696	13.167
0.695	12.988
0.694	12.988
0.693	12.904
0.692	12.679
0.691	12.624
0.69	12.446
0.689	12.573
0.688	12.679
0.687	12.5
0.686	12.518
0.685	12.521
0.684	12.539
0.683	12.418
0.682	12.298
0.681	12.075
0.68	12.039
0.679	12.37
0.678	12.128
0.677	12.097
0.676	12.115
0.675	12.237
0.674	12.169
0.673	12.011
0.672	11.855
0.671	11.767
0.67	11.664
0.669	11.752
0.668	11.961
0.667	11.804
0.666	11.545
0.665	11.682
0.664	11.511
0.663	11.46
0.662	11.546
0.661	11.512
0.66	11.408
0.659	11.339
0.658	11.517
0.657	11.519
0.656	11.305
0.655	11.253
0.654	11.168
0.653	10.913
0.652	10.96
0.651	11.208
0.65	10.994
0.649	11.105
0.648	10.918
0.647	10.66
0.646	10.692
0.645	10.885
0.644	10.541
0.643	10.799
0.642	10.864
0.641	10.967
0.64	10.883
0.639	10.472
0.638	10.376
0.637	10.412
0.636	10.571
0.635	10.521
0.634	10.455
0.633	10.181
0.632	10.353
0.631	10.237
0.63	10.451
0.629	10.205
0.628	10.142
0.627	10.158
0.626	10.348
0.625	10.102
0.624	10.18
0.623	10.038
0.622	9.721
0.621	9.918
0.62	9.977
0.619	9.871
0.618	9.855
0.617	9.824
0.616	9.831
0.615	9.899
0.614	9.759
0.613	9.97
0.612	9.911
0.611	9.839
0.61	9.653
0.609	9.871
0.608	9.414
0.607	9.662
0.606	9.574
0.605	9.282
0.604	9.297
0.603	9.253
0.602	9.49
0.601	9.315
0.6	9.255
0.599	9.363
0.598	9.181
0.597	9.089
0.596	9.318
0.595	8.817
0.594	8.98
0.593	9.133
0.592	8.98
0.591	8.844
0.59	8.896
0.589	8.821
0.588	8.837
0.587	8.646
0.586	8.645
0.585	8.409
0.584	8.19
0.583	7.977
0.582	8.019
0.581	7.759
0.58	7.759
0.579	7.612
0.578	7.612
0.577	7.729
0.576	7.518
0.575	7.296
0.574	7.464
0.573	7.152
0.572	7.048
0.571	6.996
0.57	6.892
0.569	6.751
0.568	6.623
0.567	6.823
0.566	6.81
0.565	6.2888
0.564	6.5013
0.563	6.4228
0.562	6.3195
0.561	5.9228
0.56	5.8425
0.559	5.7278
0.558	6.0242
0.557	5.9893
0.556	6.0242
0.555	6.0592
0.554	5.8765
0.553	5.5864
0.552	5.6087
0.551	5.5386
0.55	5.6124
0.549	5.5426
0.548	5.4013
0.547	5.2421
0.546	5.0623
0.545	5.0623
0.544	5.0435
0.543	4.7288
0.542	4.7495
0.541	4.7856
0.54	4.6025
0.539	4.6231
0.538	4.4433
0.537	4.3024
0.536	4.025
0.535	4.0154
0.534	4.0392
0.533	4.0392
0.532	3.8256
0.531	3.7211
0.53	3.6301
0.529	3.6843
0.528	3.6843
0.527	3.3943
0.526	3.4078
0.525	3.4167
0.524	3.4078
0.523	3.4986
0.522	3.4124
0.521	3.2478
0.52	3.181
0.519	3.1752
0.518	3.0953
0.517	3.1289
0.516	2.9022
0.515	2.8173
0.514	2.6799
0.513	2.6559
0.512	2.6399
0.511	2.6559
0.51	2.6639
0.509	2.3194
0.508	2.2521
0.507	2.043
0.506	2.0718
0.505	1.7396
0.504	1.7245
0.503	1.8496
0.502	2.079
0.501	1.981
0.5	1.911
0.499	1.9323
0.498	1.9466
0.497	1.7568
0.496	1.4123
0.495	1.4439
0.494	1.4439
0.493	1.258
0.492	1.4439
0.491	1.4566
0.49	1.3697
0.489	1.2335
0.488	1.2274
0.487	1.2274
0.486	1.1584
0.485	1.0466
0.484	1.0002
0.483	1.0118
0.482	1.0349
0.481	0.9347
0.48	0.9571
0.479	0.8344
0.478	0.8344
0.477	0.4994
0.476	0.7071
0.475	0.5952
0.474	0.4933
0.473	0.479
0.472	0.4647
0.471	0.5952
0.47	0.5077
0.469	0.2801
0.468	0.3643
0.467	0.3596
0.466	0.3596
0.465	0.2492
0.464	0.2712
0.463	0.1596
0.462	0.2825
0.461	0.386
0.46	0.0651
0.459	-0.2035
0.458	-0.0756
0.457	-0.1779
0.456	-0.1745
0.455	-0.1543
0.454	-0.1438
0.453	-0.2477
0.452	-0.1577
0.451	-0.2674
0.45	-0.4851
0.449	-0.4907
0.448	-0.4823
0.447	-0.4739
0.446	-0.6988
0.445	-0.6942
0.444	-0.7103
0.443	-0.8223
0.442	-0.8202
0.441	-1.0269
0.44	-1.1408
0.439	-1.2538
0.438	-1.2538
0.437	-1.3616
0.436	-1.2565
0.435	-1.3653
0.434	-1.4846
0.433	-1.6013
0.432	-1.5913
0.431	-1.3487
0.43	-1.7057
0.429	-1.7072
0.428	-1.5879
0.427	-1.5848
0.426	-1.8131
0.425	-1.8252
0.424	-1.7068
0.423	-1.8242
0.422	-1.9342
0.421	-1.934
0.42	-1.9337
0.419	-2.052
0.418	-2.052
0.417	-1.9434
0.416	-2.0634
0.415	-1.953
0.414	-2.0611
0.413	-2.0598
0.412	-2.1856
0.411	-2.3095
0.41	-2.19
0.409	-2.0626
0.408	-2.3053
0.407	-2.4332
0.406	-2.3205
0.405	-2.3084
0.404	-2.5429
0.403	-2.5489
0.402	-2.4281
0.401	-2.3182
0.4	-2.5516
