Name:  Pale brown dry silty clay loam
Type:  Soils
Class:  Inceptisol
Subclass:  Ustocrept
Particle Size:  see additional information
Sample No.:  82P2671
Owner:  JHU
Wavelength range:  All
Origin:  Diar Alla Experiment Station.  Jordon, via USDA Soil Conservation 
service
Description:  Parent material is irrigated cropland.  Pale brown dry silty clay loam 
(fine, illitic calcareous hyperthermic fluventic).




Measurement:  Directional (10 degree) hemispherical reflectance
First Column:  X
Second Column:  Y
X Units:  Wavelength (micrometers)
Y Units:  Reflectance (percent)
First X Value:  14.0112
Last X Value:  0.4000
Number of X Values:  2844
Additional information:  82P2671a.txt

14.94	1.5522
14.94	1.5522
14.897	1.5439
14.854	1.5493
14.812	1.5649
14.77	1.5857
14.728	1.6064
14.686	1.6243
14.645	1.637
14.603	1.6443
14.562	1.6445
14.521	1.6343
14.481	1.6125
14.441	1.5813
14.4	1.5466
14.361	1.5159
14.321	1.4956
14.281	1.4897
14.242	1.4951
14.203	1.5029
14.164	1.5029
14.126	1.489
14.087	1.4604
14.049	1.4248
14.011	1.3953
13.973	1.3872
13.936	1.4104
13.899	1.4646
13.861	1.5405
13.824	1.6204
13.788	1.6863
13.751	1.7258
13.715	1.7373
13.679	1.7288
13.643	1.7131
13.607	1.7031
13.571	1.7051
13.536	1.7185
13.5	1.7371
13.465	1.7551
13.43	1.7683
13.396	1.7766
13.361	1.7837
13.327	1.7925
13.293	1.8042
13.259	1.8193
13.225	1.8376
13.191	1.8581
13.158	1.8799
13.124	1.9028
13.091	1.9246
13.058	1.9409
13.026	1.9497
12.993	1.9507
12.96	1.9492
12.928	1.9504
12.896	1.9614
12.864	1.9849
12.832	2.0166
12.8	2.0466
12.769	2.0642
12.737	2.0618
12.706	2.0386
12.675	1.9998
12.644	1.956
12.614	1.9172
12.583	1.8884
12.552	1.8682
12.522	1.8528
12.492	1.8357
12.462	1.8127
12.432	1.7832
12.402	1.7524
12.373	1.7263
12.343	1.7104
12.314	1.7095
12.285	1.7239
12.256	1.751
12.227	1.7849
12.198	1.8213
12.169	1.856
12.141	1.887
12.113	1.9148
12.084	1.9438
12.056	1.979
12.028	2.0229
12	2.0759
11.973	2.134
11.945	2.1894
11.918	2.2319
11.89	2.2556
11.863	2.2615
11.836	2.2566
11.809	2.2522
11.782	2.26
11.755	2.2869
11.729	2.3325
11.702	2.3889
11.676	2.4482
11.65	2.5039
11.624	2.553
11.598	2.5957
11.572	2.633
11.546	2.6636
11.52	2.6802
11.495	2.676
11.469	2.6457
11.444	2.5918
11.419	2.5232
11.394	2.456
11.369	2.4058
11.344	2.3823
11.319	2.386
11.294	2.4075
11.27	2.4333
11.245	2.4502
11.221	2.4487
11.197	2.4282
11.173	2.3928
11.149	2.3506
11.125	2.3083
11.101	2.2698
11.077	2.2363
11.054	2.206
11.03	2.1782
11.007	2.1538
10.983	2.1365
10.96	2.1304
10.937	2.1389
10.914	2.1594
10.891	2.1865
10.868	2.2112
10.846	2.2239
10.823	2.2195
10.8	2.1995
10.778	2.1699
10.755	2.1401
10.733	2.1182
10.711	2.1099
10.689	2.116
10.667	2.1328
10.645	2.1558
10.623	2.1807
10.602	2.2046
10.58	2.2261
10.558	2.2463
10.537	2.2666
10.516	2.2891
10.494	2.3159
10.473	2.3489
10.452	2.3887
10.431	2.4331
10.41	2.4797
10.389	2.5247
10.368	2.564
10.348	2.5952
10.327	2.6174
10.306	2.6299
10.286	2.6335
10.266	2.6309
10.245	2.6272
10.225	2.6299
10.205	2.647
10.185	2.687
10.165	2.7517
10.145	2.8369
10.125	2.9324
10.106	3.0268
10.086	3.1101
10.066	3.1755
10.047	3.2234
10.027	3.2593
10.008	3.2898
9.9887	3.3215
9.9695	3.3579
9.9504	3.3999
9.9313	3.4451
9.9123	3.488
9.8934	3.5246
9.8746	3.5537
9.8558	3.5776
9.8371	3.6018
9.8185	3.6326
9.7999	3.6755
9.7814	3.7331
9.763	3.802
9.7447	3.877
9.7264	3.951
9.7082	4.02
9.69	4.081
9.6719	4.13
9.6539	4.167
9.636	4.194
9.6181	4.208
9.6003	4.212
9.5825	4.208
9.5649	4.197
9.5472	4.182
9.5297	4.166
9.5122	4.153
9.4948	4.148
9.4774	4.154
9.4601	4.175
9.4429	4.21
9.4257	4.252
9.4086	4.293
9.3916	4.323
9.3746	4.333
9.3577	4.319
9.3408	4.281
9.324	4.225
9.3073	4.159
9.2906	4.09
9.274	4.023
9.2574	3.966
9.2409	3.919
9.2245	3.883
9.2081	3.852
9.1918	3.825
9.1755	3.7988
9.1593	3.7705
9.1431	3.7388
9.127	3.7038
9.111	3.6653
9.095	3.6218
9.0791	3.572
9.0632	3.5185
9.0474	3.4675
9.0316	3.426
9.0159	3.4023
9.0003	3.4028
8.9847	3.4309
8.9691	3.4829
8.9536	3.5508
8.9382	3.623
8.9228	3.6887
8.9075	3.7385
8.8922	3.7688
8.877	3.7829
8.8618	3.7903
8.8467	3.7993
8.8316	3.818
8.8166	3.849
8.8016	3.889
8.7867	3.933
8.7718	3.971
8.757	3.999
8.7422	4.014
8.7275	4.014
8.7129	3.998
8.6982	3.969
8.6837	3.928
8.6692	3.886
8.6547	3.852
8.6403	3.843
8.6259	3.87
8.6116	3.935
8.5973	4.037
8.583	4.163
8.5688	4.298
8.5547	4.427
8.5406	4.54
8.5266	4.635
8.5126	4.712
8.4986	4.776
8.4847	4.835
8.4708	4.894
8.457	4.958
8.4432	5.032
8.4295	5.118
8.4158	5.22
8.4022	5.336
8.3886	5.465
8.375	5.604
8.3615	5.749
8.3481	5.898
8.3347	6.049
8.3213	6.202
8.3079	6.36
8.2946	6.524
8.2814	6.694
8.2682	6.867
8.255	7.037
8.2419	7.196
8.2288	7.335
8.2158	7.45
8.2028	7.535
8.1898	7.589
8.1769	7.608
8.164	7.594
8.1512	7.549
8.1384	7.477
8.1256	7.39
8.1129	7.295
8.1002	7.203
8.0876	7.122
8.075	7.054
8.0624	6.998
8.0499	6.954
8.0374	6.916
8.025	6.883
8.0126	6.854
8.0002	6.828
7.9879	6.803
7.9756	6.777
7.9634	6.747
7.9512	6.712
7.939	6.672
7.9268	6.631
7.9147	6.594
7.9027	6.563
7.8906	6.54
7.8786	6.523
7.8667	6.51
7.8548	6.497
7.8429	6.486
7.831	6.476
7.8192	6.47
7.8075	6.472
7.7957	6.482
7.784	6.499
7.7723	6.522
7.7607	6.547
7.7491	6.57
7.7375	6.586
7.726	6.593
7.7145	6.59
7.7031	6.575
7.6916	6.552
7.6802	6.519
7.6689	6.479
7.6575	6.433
7.6462	6.381
7.635	6.326
7.6238	6.271
7.6126	6.22
7.6014	6.176
7.5903	6.142
7.5792	6.115
7.5681	6.095
7.5571	6.077
7.5461	6.06
7.5351	6.041
7.5242	6.019
7.5133	5.995
7.5024	5.967
7.4916	5.935
7.4807	5.898
7.47	5.856
7.4592	5.809
7.4485	5.758
7.4378	5.704
7.4272	5.646
7.4165	5.584
7.4059	5.514
7.3954	5.433
7.3848	5.337
7.3743	5.224
7.3639	5.095
7.3534	4.951
7.343	4.797
7.3326	4.637
7.3222	4.477
7.3119	4.322
7.3016	4.175
7.2914	4.04
7.2811	3.915
7.2709	3.7993
7.2607	3.6885
7.2506	3.5798
7.2404	3.4719
7.2303	3.3657
7.2203	3.2637
7.2102	3.1684
7.2002	3.0825
7.1902	3.0083
7.1803	2.9482
7.1703	2.9058
7.1604	2.8862
7.1506	2.894
7.1407	2.9282
7.1309	2.9824
7.1211	3.0452
7.1113	3.1011
7.1016	3.1367
7.0919	3.144
7.0822	3.1238
7.0725	3.0835
7.0629	3.0347
7.0533	2.9888
7.0437	2.9517
7.0341	2.9248
7.0246	2.9028
7.0151	2.8784
7.0056	2.8452
6.9962	2.8
6.9867	2.7458
6.9773	2.6887
6.9679	2.6372
6.9586	2.6001
6.9493	2.5815
6.94	2.5801
6.9307	2.5906
6.9214	2.6035
6.9122	2.6086
6.903	2.6003
6.8938	2.5781
6.8847	2.5478
6.8755	2.5193
6.8664	2.5017
6.8573	2.5007
6.8483	2.5146
6.8393	2.5349
6.8302	2.5508
6.8213	2.5554
6.8123	2.5478
6.8034	2.5334
6.7944	2.5225
6.7855	2.5254
6.7767	2.5476
6.7678	2.5862
6.759	2.633
6.7502	2.6772
6.7414	2.709
6.7327	2.7246
6.7239	2.727
6.7152	2.7239
6.7065	2.7251
6.6979	2.7363
6.6892	2.7571
6.6806	2.7834
6.672	2.8103
6.6634	2.835
6.6549	2.8618
6.6464	2.8975
6.6378	2.9495
6.6294	3.0181
6.6209	3.0967
6.6124	3.1736
6.604	3.2402
6.5956	3.2932
6.5872	3.3401
6.5789	3.3938
6.5705	3.4663
6.5622	3.5613
6.5539	3.6697
6.5456	3.7729
6.5374	3.848
6.5292	3.879
6.5209	3.865
6.5128	3.823
6.5046	3.7837
6.4964	3.781
6.4883	3.84
6.4802	3.963
6.4721	4.129
6.464	4.298
6.456	4.427
6.448	4.485
6.4399	4.466
6.432	4.39
6.424	4.29
6.416	4.198
6.4081	4.134
6.4002	4.095
6.3923	4.062
6.3844	4.011
6.3766	3.927
6.3687	3.809
6.3609	3.6667
6.3531	3.5183
6.3454	3.3791
6.3376	3.2561
6.3299	3.1477
6.3221	3.0488
6.3144	2.9543
6.3068	2.8625
6.2991	2.7749
6.2914	2.6926
6.2838	2.6184
6.2762	2.5508
6.2686	2.4878
6.2611	2.4243
6.2535	2.3579
6.246	2.2873
6.2385	2.2134
6.231	2.1367
6.2235	2.0588
6.216	1.9824
6.2086	1.908
6.2011	1.8364
6.1937	1.7688
6.1863	1.7082
6.179	1.6567
6.1716	1.6147
6.1643	1.5813
6.157	1.553
6.1496	1.5247
6.1424	1.4932
6.1351	1.458
6.1278	1.4228
6.1206	1.3933
6.1134	1.3733
6.1062	1.3638
6.099	1.3628
6.0918	1.3635
6.0847	1.3608
6.0776	1.3538
6.0704	1.3464
6.0633	1.3455
6.0563	1.3567
6.0492	1.3835
6.0421	1.4231
6.0351	1.4668
6.0281	1.5054
6.0211	1.5325
6.0141	1.5474
6.0071	1.554
6.0002	1.5588
5.9932	1.5691
5.9863	1.5884
5.9794	1.614
5.9725	1.6406
5.9657	1.665
5.9588	1.6875
5.952	1.7124
5.9451	1.7473
5.9383	1.7978
5.9315	1.8645
5.9247	1.939
5.918	2.0098
5.9112	2.0676
5.9045	2.1096
5.8978	2.1438
5.8911	2.1846
5.8844	2.2461
5.8777	2.3367
5.8711	2.4524
5.8644	2.5791
5.8578	2.6985
5.8512	2.7964
5.8446	2.8691
5.838	2.9253
5.8314	2.9797
5.8249	3.0483
5.8184	3.1387
5.8118	3.2473
5.8053	3.3594
5.7988	3.4556
5.7923	3.5237
5.7859	3.5605
5.7794	3.5749
5.773	3.5837
5.7666	3.6052
5.7602	3.6511
5.7538	3.7219
5.7474	3.81
5.741	3.903
5.7347	3.991
5.7283	4.067
5.722	4.133
5.7157	4.193
5.7094	4.253
5.7031	4.316
5.6969	4.381
5.6906	4.443
5.6844	4.494
5.6782	4.526
5.6719	4.537
5.6657	4.526
5.6596	4.498
5.6534	4.464
5.6472	4.43
5.6411	4.404
5.6349	4.381
5.6288	4.351
5.6227	4.298
5.6166	4.203
5.6106	4.051
5.6045	3.839
5.5984	3.5759
5.5924	3.2842
5.5864	2.9951
5.5804	2.7441
5.5744	2.5652
5.5684	2.4849
5.5624	2.5166
5.5564	2.6597
5.5505	2.8984
5.5445	3.2053
5.5386	3.5444
5.5327	3.881
5.5268	4.188
5.5209	4.449
5.5151	4.658
5.5092	4.822
5.5033	4.953
5.4975	5.061
5.4917	5.16
5.4859	5.258
5.4801	5.366
5.4743	5.486
5.4685	5.619
5.4628	5.759
5.457	5.894
5.4513	6.01
5.4455	6.095
5.4398	6.148
5.4341	6.173
5.4284	6.179
5.4228	6.178
5.4171	6.177
5.4114	6.174
5.4058	6.164
5.4002	6.139
5.3945	6.095
5.3889	6.031
5.3833	5.953
5.3778	5.867
5.3722	5.785
5.3666	5.716
5.3611	5.667
5.3555	5.645
5.35	5.652
5.3445	5.687
5.339	5.743
5.3335	5.809
5.328	5.876
5.3225	5.939
5.3171	5.993
5.3116	6.042
5.3062	6.09
5.3008	6.143
5.2954	6.206
5.29	6.283
5.2846	6.374
5.2792	6.478
5.2738	6.593
5.2684	6.716
5.2631	6.846
5.2578	6.981
5.2524	7.123
5.2471	7.27
5.2418	7.419
5.2365	7.566
5.2312	7.704
5.226	7.831
5.2207	7.943
5.2154	8.043
5.2102	8.135
5.205	8.222
5.1998	8.304
5.1945	8.382
5.1893	8.452
5.1842	8.509
5.179	8.551
5.1738	8.576
5.1686	8.588
5.1635	8.592
5.1584	8.595
5.1532	8.605
5.1481	8.625
5.143	8.658
5.1379	8.698
5.1328	8.738
5.1277	8.772
5.1227	8.794
5.1176	8.805
5.1126	8.807
5.1075	8.804
5.1025	8.802
5.0975	8.805
5.0925	8.813
5.0875	8.825
5.0825	8.84
5.0775	8.858
5.0726	8.877
5.0676	8.899
5.0627	8.925
5.0577	8.953
5.0528	8.982
5.0479	9.008
5.043	9.028
5.038	9.04
5.0332	9.046
5.0283	9.05
5.0234	9.058
5.0185	9.075
5.0137	9.103
5.0088	9.143
5.004	9.193
4.9992	9.252
4.9944	9.321
4.9896	9.4
4.9848	9.492
4.98	9.598
4.9752	9.717
4.9704	9.845
4.9657	9.98
4.9609	10.112
4.9562	10.237
4.9514	10.349
4.9467	10.446
4.942	10.532
4.9373	10.61
4.9326	10.688
4.9279	10.774
4.9232	10.877
4.9186	11
4.9139	11.145
4.9092	11.31
4.9046	11.49
4.9	11.682
4.8953	11.876
4.8907	12.067
4.8861	12.246
4.8815	12.408
4.8769	12.549
4.8723	12.667
4.8678	12.765
4.8632	12.848
4.8586	12.922
4.8541	12.991
4.8495	13.058
4.845	13.124
4.8405	13.188
4.836	13.249
4.8315	13.305
4.827	13.356
4.8225	13.402
4.818	13.443
4.8135	13.482
4.809	13.52
4.8046	13.56
4.8001	13.603
4.7957	13.647
4.7913	13.691
4.7868	13.733
4.7824	13.77
4.778	13.8
4.7736	13.824
4.7692	13.843
4.7648	13.857
4.7605	13.869
4.7561	13.88
4.7517	13.89
4.7474	13.9
4.7431	13.907
4.7387	13.91
4.7344	13.905
4.7301	13.889
4.7258	13.859
4.7215	13.811
4.7172	13.745
4.7129	13.66
4.7086	13.561
4.7043	13.456
4.7	13.352
4.6958	13.257
4.6915	13.18
4.6873	13.121
4.6831	13.084
4.6788	13.066
4.6746	13.069
4.6704	13.092
4.6662	13.136
4.662	13.202
4.6578	13.285
4.6536	13.385
4.6495	13.495
4.6453	13.613
4.6411	13.733
4.637	13.854
4.6328	13.971
4.6287	14.082
4.6246	14.185
4.6205	14.279
4.6163	14.365
4.6122	14.442
4.6081	14.513
4.604	14.579
4.6	14.639
4.5959	14.696
4.5918	14.75
4.5877	14.802
4.5837	14.852
4.5796	14.9
4.5756	14.943
4.5716	14.981
4.5675	15.015
4.5635	15.043
4.5595	15.067
4.5555	15.087
4.5515	15.104
4.5475	15.117
4.5435	15.125
4.5395	15.129
4.5356	15.131
4.5316	15.133
4.5276	15.135
4.5237	15.136
4.5197	15.133
4.5158	15.122
4.5119	15.102
4.508	15.078
4.504	15.055
4.5001	15.039
4.4962	15.038
4.4923	15.052
4.4884	15.079
4.4846	15.115
4.4807	15.155
4.4768	15.196
4.473	15.238
4.4691	15.281
4.4652	15.327
4.4614	15.376
4.4576	15.427
4.4537	15.478
4.4499	15.529
4.4461	15.581
4.4423	15.634
4.4385	15.691
4.4347	15.754
4.4309	15.822
4.4271	15.894
4.4233	15.969
4.4196	16.043
4.4158	16.116
4.412	16.186
4.4083	16.253
4.4045	16.315
4.4008	16.375
4.3971	16.433
4.3934	16.49
4.3896	16.55
4.3859	16.611
4.3822	16.674
4.3785	16.738
4.3748	16.801
4.3711	16.864
4.3674	16.924
4.3638	16.98
4.3601	17.032
4.3564	17.077
4.3528	17.117
4.3491	17.15
4.3455	17.179
4.3418	17.203
4.3382	17.224
4.3346	17.24
4.331	17.253
4.3273	17.263
4.3237	17.27
4.3201	17.271
4.3165	17.268
4.3129	17.26
4.3094	17.247
4.3058	17.233
4.3022	17.217
4.2986	17.199
4.2951	17.172
4.2915	17.132
4.288	17.075
4.2844	17.005
4.2809	16.933
4.2774	16.879
4.2738	16.865
4.2703	16.904
4.2668	17
4.2633	17.138
4.2598	17.292
4.2563	17.434
4.2528	17.542
4.2493	17.607
4.2458	17.636
4.2424	17.645
4.2389	17.653
4.2354	17.677
4.232	17.723
4.2285	17.795
4.2251	17.888
4.2216	17.997
4.2182	18.114
4.2148	18.234
4.2113	18.35
4.2079	18.456
4.2045	18.55
4.2011	18.629
4.1977	18.694
4.1943	18.746
4.1909	18.787
4.1875	18.821
4.1841	18.848
4.1808	18.87
4.1774	18.887
4.174	18.901
4.1707	18.914
4.1673	18.927
4.164	18.942
4.1606	18.956
4.1573	18.969
4.154	18.979
4.1506	18.986
4.1473	18.99
4.144	18.992
4.1407	18.995
4.1374	18.999
4.1341	19.001
4.1308	19.001
4.1275	18.994
4.1242	18.981
4.1209	18.961
4.1177	18.938
4.1144	18.912
4.1111	18.886
4.1079	18.858
4.1046	18.827
4.1014	18.793
4.0981	18.755
4.0949	18.714
4.0917	18.669
4.0884	18.619
4.0852	18.562
4.082	18.49
4.0788	18.402
4.0756	18.293
4.0724	18.166
4.0692	18.023
4.066	17.867
4.0628	17.7
4.0596	17.517
4.0565	17.312
4.0533	17.075
4.0501	16.797
4.047	16.471
4.0438	16.094
4.0406	15.669
4.0375	15.203
4.0344	14.706
4.0312	14.189
4.0281	13.664
4.025	13.139
4.0218	12.62
4.0187	12.105
4.0156	11.594
4.0125	11.08
4.0094	10.56
4.0063	10.033
4.0032	9.507
4.0001	8.99
3.997	8.497
3.994	8.047
3.9909	7.654
3.9878	7.33
3.9847	7.08
3.9817	6.902
3.9786	6.791
3.9756	6.737
3.9725	6.734
3.9695	6.775
3.9665	6.862
3.9634	6.995
3.9604	7.178
3.9574	7.416
3.9544	7.711
3.9513	8.06
3.9483	8.453
3.9453	8.872
3.9423	9.291
3.9393	9.681
3.9363	10.02
3.9333	10.295
3.9304	10.508
3.9274	10.675
3.9244	10.813
3.9214	10.943
3.9185	11.074
3.9155	11.21
3.9126	11.345
3.9096	11.471
3.9067	11.585
3.9037	11.681
3.9008	11.761
3.8979	11.827
3.8949	11.882
3.892	11.929
3.8891	11.973
3.8862	12.015
3.8833	12.058
3.8804	12.1
3.8775	12.142
3.8746	12.182
3.8717	12.22
3.8688	12.258
3.8659	12.298
3.863	12.342
3.8601	12.393
3.8573	12.45
3.8544	12.516
3.8515	12.59
3.8487	12.673
3.8458	12.769
3.843	12.881
3.8401	13.01
3.8373	13.158
3.8344	13.323
3.8316	13.501
3.8288	13.686
3.8259	13.872
3.8231	14.056
3.8203	14.236
3.8175	14.413
3.8147	14.593
3.8119	14.782
3.8091	14.985
3.8063	15.208
3.8035	15.448
3.8007	15.702
3.7979	15.959
3.7951	16.21
3.7924	16.443
3.7896	16.65
3.7868	16.826
3.7841	16.969
3.7813	17.08
3.7785	17.164
3.7758	17.227
3.773	17.274
3.7703	17.311
3.7676	17.339
3.7648	17.358
3.7621	17.366
3.7594	17.362
3.7566	17.348
3.7539	17.327
3.7512	17.302
3.7485	17.278
3.7458	17.254
3.7431	17.23
3.7404	17.202
3.7377	17.171
3.735	17.138
3.7323	17.103
3.7296	17.068
3.7269	17.032
3.7242	16.994
3.7216	16.951
3.7189	16.899
3.7162	16.84
3.7136	16.776
3.7109	16.712
3.7083	16.651
3.7056	16.597
3.703	16.548
3.7003	16.5
3.6977	16.448
3.695	16.388
3.6924	16.322
3.6898	16.253
3.6872	16.186
3.6845	16.128
3.6819	16.079
3.6793	16.04
3.6767	16.004
3.6741	15.966
3.6715	15.921
3.6689	15.866
3.6663	15.8
3.6637	15.724
3.6611	15.64
3.6585	15.552
3.656	15.464
3.6534	15.379
3.6508	15.299
3.6482	15.225
3.6457	15.157
3.6431	15.092
3.6406	15.028
3.638	14.962
3.6355	14.891
3.6329	14.814
3.6304	14.733
3.6278	14.649
3.6253	14.565
3.6227	14.483
3.6202	14.403
3.6177	14.328
3.6152	14.257
3.6127	14.187
3.6101	14.117
3.6076	14.046
3.6051	13.973
3.6026	13.897
3.6001	13.819
3.5976	13.739
3.5951	13.657
3.5926	13.572
3.5901	13.48
3.5876	13.381
3.5852	13.273
3.5827	13.157
3.5802	13.037
3.5777	12.917
3.5753	12.802
3.5728	12.697
3.5704	12.603
3.5679	12.519
3.5654	12.44
3.563	12.36
3.5605	12.274
3.5581	12.179
3.5557	12.076
3.5532	11.967
3.5508	11.854
3.5484	11.738
3.5459	11.621
3.5435	11.501
3.5411	11.376
3.5387	11.241
3.5363	11.095
3.5338	10.933
3.5314	10.751
3.529	10.547
3.5266	10.321
3.5242	10.079
3.5218	9.826
3.5195	9.574
3.5171	9.33
3.5147	9.102
3.5123	8.894
3.5099	8.705
3.5075	8.536
3.5052	8.381
3.5028	8.238
3.5004	8.1
3.4981	7.968
3.4957	7.838
3.4934	7.711
3.491	7.587
3.4887	7.467
3.4863	7.354
3.484	7.251
3.4816	7.16
3.4793	7.088
3.477	7.043
3.4746	7.03
3.4723	7.053
3.47	7.11
3.4677	7.195
3.4653	7.294
3.463	7.394
3.4607	7.482
3.4584	7.551
3.4561	7.595
3.4538	7.614
3.4515	7.608
3.4492	7.583
3.4469	7.541
3.4446	7.489
3.4423	7.434
3.44	7.382
3.4378	7.34
3.4355	7.306
3.4332	7.279
3.4309	7.255
3.4287	7.226
3.4264	7.191
3.4241	7.148
3.4219	7.1
3.4196	7.047
3.4174	6.994
3.4151	6.942
3.4129	6.893
3.4106	6.847
3.4084	6.805
3.4061	6.766
3.4039	6.733
3.4017	6.704
3.3994	6.682
3.3972	6.667
3.395	6.656
3.3928	6.646
3.3906	6.632
3.3883	6.61
3.3861	6.578
3.3839	6.537
3.3817	6.492
3.3795	6.447
3.3773	6.404
3.3751	6.364
3.3729	6.328
3.3707	6.294
3.3685	6.257
3.3663	6.216
3.3641	6.167
3.362	6.107
3.3598	6.038
3.3576	5.961
3.3554	5.886
3.3533	5.821
3.3511	5.777
3.3489	5.759
3.3468	5.772
3.3446	5.81
3.3425	5.868
3.3403	5.935
3.3382	6.002
3.336	6.06
3.3339	6.106
3.3317	6.135
3.3296	6.146
3.3274	6.141
3.3253	6.122
3.3232	6.091
3.321	6.054
3.3189	6.013
3.3168	5.971
3.3147	5.93
3.3126	5.891
3.3104	5.855
3.3083	5.821
3.3062	5.789
3.3041	5.76
3.302	5.732
3.2999	5.706
3.2978	5.677
3.2957	5.645
3.2936	5.608
3.2915	5.567
3.2894	5.523
3.2874	5.479
3.2853	5.438
3.2832	5.399
3.2811	5.362
3.279	5.324
3.277	5.285
3.2749	5.241
3.2728	5.195
3.2708	5.148
3.2687	5.102
3.2666	5.06
3.2646	5.021
3.2625	4.986
3.2605	4.951
3.2584	4.915
3.2564	4.877
3.2543	4.836
3.2523	4.794
3.2503	4.754
3.2482	4.717
3.2462	4.682
3.2442	4.645
3.2421	4.604
3.2401	4.559
3.2381	4.513
3.2361	4.471
3.234	4.438
3.232	4.417
3.23	4.404
3.228	4.393
3.226	4.376
3.224	4.348
3.222	4.307
3.22	4.259
3.218	4.21
3.216	4.165
3.214	4.126
3.212	4.092
3.21	4.061
3.208	4.03
3.206	3.999
3.204	3.967
3.2021	3.936
3.2001	3.906
3.1981	3.876
3.1961	3.846
3.1942	3.816
3.1922	3.7876
3.1902	3.7598
3.1883	3.7327
3.1863	3.7065
3.1844	3.6811
3.1824	3.6565
3.1805	3.6343
3.1785	3.6142
3.1766	3.5952
3.1746	3.573
3.1727	3.5444
3.1707	3.508
3.1688	3.4646
3.1669	3.418
3.1649	3.3733
3.163	3.3352
3.1611	3.3064
3.1591	3.2856
3.1572	3.2698
3.1553	3.2551
3.1534	3.2385
3.1515	3.2175
3.1495	3.1924
3.1476	3.1658
3.1457	3.1401
3.1438	3.1179
3.1419	3.0996
3.14	3.084
3.1381	3.0681
3.1362	3.0503
3.1343	3.0303
3.1324	3.0098
3.1305	2.9907
3.1286	2.9753
3.1268	2.9617
3.1249	2.9463
3.123	2.9255
3.1211	2.8965
3.1192	2.8603
3.1174	2.8208
3.1155	2.7827
3.1136	2.75
3.1117	2.7244
3.1099	2.7056
3.108	2.6931
3.1061	2.6853
3.1043	2.6797
3.1024	2.6755
3.1006	2.6699
3.0987	2.6609
3.0969	2.6467
3.095	2.6284
3.0932	2.6074
3.0913	2.5872
3.0895	2.5708
3.0876	2.5596
3.0858	2.5527
3.084	2.5486
3.0821	2.5456
3.0803	2.5425
3.0785	2.5395
3.0766	2.5378
3.0748	2.5388
3.073	2.5425
3.0712	2.5464
3.0694	2.5478
3.0675	2.5452
3.0657	2.5371
3.0639	2.5259
3.0621	2.5142
3.0603	2.5044
3.0585	2.4973
3.0567	2.4912
3.0549	2.4839
3.0531	2.4744
3.0513	2.4622
3.0495	2.4495
3.0477	2.4382
3.0459	2.4297
3.0441	2.4241
3.0423	2.4202
3.0406	2.4172
3.0388	2.415
3.037	2.4133
3.0352	2.4119
3.0334	2.4104
3.0317	2.4072
3.0299	2.4006
3.0281	2.3906
3.0264	2.3777
3.0246	2.3635
3.0228	2.3508
3.0211	2.3408
3.0193	2.3332
3.0176	2.3274
3.0158	2.321
3.014	2.3135
3.0123	2.3054
3.0105	2.2976
3.0088	2.2935
3.007	2.2935
3.0053	2.2966
3.0036	2.3008
3.0018	2.3035
3.0001	2.3018
2.9984	2.2956
2.9966	2.2854
2.9949	2.2734
2.9932	2.2607
2.9914	2.2485
2.9897	2.2373
2.988	2.229
2.9863	2.2246
2.9845	2.2248
2.9828	2.2292
2.9811	2.2353
2.9794	2.2395
2.9777	2.2385
2.976	2.2312
2.9743	2.2185
2.9726	2.2036
2.9709	2.1899
2.9692	2.1792
2.9675	2.1706
2.9658	2.1621
2.9641	2.1504
2.9624	2.1345
2.9607	2.1162
2.959	2.0984
2.9573	2.0859
2.9556	2.0815
2.9539	2.0876
2.9523	2.103
2.9506	2.1238
2.9489	2.1453
2.9472	2.1623
2.9455	2.1699
2.9439	2.1658
2.9422	2.1514
2.9405	2.1304
2.9389	2.1099
2.9372	2.0952
2.9355	2.0908
2.9339	2.0957
2.9322	2.1069
2.9306	2.1189
2.9289	2.1272
2.9272	2.1287
2.9256	2.1248
2.9239	2.1194
2.9223	2.1162
2.9207	2.1169
2.919	2.1221
2.9174	2.1291
2.9157	2.1331
2.9141	2.1313
2.9124	2.124
2.9108	2.1138
2.9092	2.1047
2.9075	2.1018
2.9059	2.1074
2.9043	2.1211
2.9027	2.1384
2.901	2.1548
2.8994	2.1675
2.8978	2.175
2.8962	2.1775
2.8946	2.1785
2.8929	2.1804
2.8913	2.1843
2.8897	2.189
2.8881	2.1951
2.8865	2.2017
2.8849	2.2087
2.8833	2.2161
2.8817	2.2248
2.8801	2.2346
2.8785	2.2427
2.8769	2.2473
2.8753	2.2471
2.8737	2.2417
2.8721	2.2327
2.8705	2.2229
2.8689	2.2156
2.8673	2.2126
2.8658	2.2136
2.8642	2.2192
2.8626	2.2275
2.861	2.2375
2.8594	2.248
2.8579	2.2581
2.8563	2.2659
2.8547	2.2712
2.8531	2.2744
2.8516	2.2781
2.85	2.2837
2.8484	2.2905
2.8469	2.2974
2.8453	2.3018
2.8437	2.301
2.8422	2.2952
2.8406	2.2866
2.8391	2.2805
2.8375	2.2795
2.836	2.2842
2.8344	2.2915
2.8329	2.2976
2.8313	2.2981
2.8298	2.2915
2.8282	2.2793
2.8267	2.2654
2.8252	2.2541
2.8236	2.2478
2.8221	2.2466
2.8205	2.2485
2.819	2.2515
2.8175	2.2539
2.8159	2.2534
2.8144	2.2495
2.8129	2.2407
2.8114	2.2251
2.8098	2.2014
2.8083	2.1709
2.8068	2.1374
2.8053	2.106
2.8038	2.0832
2.8022	2.073
2.8007	2.0752
2.7992	2.0854
2.7977	2.0986
2.7962	2.1086
2.7947	2.1113
2.7932	2.1052
2.7917	2.0913
2.7902	2.071
2.7887	2.0483
2.7872	2.0283
2.7857	2.0156
2.7842	2.0129
2.7827	2.0198
2.7812	2.0317
2.7797	2.0413
2.7782	2.0405
2.7767	2.0256
2.7752	1.999
2.7738	1.967
2.7723	1.9355
2.7708	1.908
2.7693	1.8835
2.7678	1.8572
2.7664	1.8247
2.7649	1.7854
2.7634	1.7451
2.7619	1.7129
2.7605	1.6985
2.759	1.7085
2.7575	1.7434
2.7561	1.7991
2.7546	1.8677
2.7531	1.9414
2.7517	2.0122
2.7502	2.0737
2.7488	2.1191
2.7473	2.1445
2.7458	2.1494
2.7444	2.1365
2.7429	2.1155
2.7415	2.1003
2.74	2.1069
2.7386	2.1465
2.7371	2.2227
2.7357	2.3306
2.7343	2.4573
2.7328	2.5867
2.7314	2.7034
2.7299	2.8
2.7285	2.8772
2.7271	2.9434
2.7256	3.0146
2.7242	3.1084
2.7228	3.2353
2.7213	3.396
2.7199	3.5745
2.7185	3.7432
2.7171	3.867
2.7156	3.916
2.7142	3.876
2.7128	3.7502
2.7114	3.5627
2.71	3.3513
2.7085	3.1594
2.7071	3.0273
2.7057	2.9871
2.7043	3.0586
2.7029	3.2485
2.7015	3.553
2.7001	3.964
2.6987	4.472
2.6973	5.073
2.6959	5.764
2.6945	6.543
2.6931	7.403
2.6917	8.326
2.6903	9.283
2.6889	10.234
2.6875	11.141
2.6861	11.97
2.6847	12.698
2.6833	13.322
2.6819	13.86
2.6805	14.346
2.6791	14.81
2.6778	15.263
2.6764	15.697
2.675	16.089
2.6736	16.406
2.6722	16.637
2.6709	16.81
2.6695	16.984
2.6681	17.225
2.6667	17.578
2.6654	18.06
2.664	18.641
2.6626	19.255
2.6613	19.829
2.6599	20.314
2.6585	20.695
2.6572	20.983
2.6558	21.214
2.6545	21.426
2.6531	21.644
2.6517	21.871
2.6504	22.096
2.649	22.302
2.6477	22.485
2.6463	22.65
2.645	22.818
2.6436	23.006
2.6423	23.217
2.6409	23.435
2.6396	23.629
2.6382	23.751
2.6369	23.771
2.6356	23.686
2.6342	23.528
2.6329	23.353
2.6315	23.232
2.6302	23.225
2.6289	23.35
2.6275	23.571
2.6262	23.821
2.6249	24.022
2.6236	24.116
2.6222	24.091
2.6209	23.996
2.6196	23.915
2.6183	23.925
2.6169	24.061
2.6156	24.306
2.6143	24.592
2.613	24.818
2.6117	24.904
2.6103	24.831
2.609	24.649
2.6077	24.456
2.6064	24.355
2.6051	24.416
2.6038	24.627
2.6025	24.887
2.6012	25.062
2.5999	25.052
2.5986	24.847
2.5973	24.53
2.596	24.246
2.5947	24.137
2.5934	24.268
2.5921	24.588
2.5908	24.97
2.5895	25.286
2.5882	25.456
2.5869	25.483
2.5856	25.434
2.5843	25.4
2.583	25.444
2.5817	25.569
2.5805	25.724
2.5792	25.853
2.5779	25.917
2.5766	25.914
2.5753	25.876
2.5741	25.853
2.5728	25.886
2.5715	25.974
2.5702	26.084
2.569	26.163
2.5677	26.169
2.5664	26.091
2.5651	25.964
2.5639	25.854
2.5626	25.833
2.5613	25.935
2.5601	26.147
2.5588	26.412
2.5575	26.651
2.5563	26.801
2.555	26.839
2.5538	26.784
2.5525	26.679
2.5513	26.571
2.55	26.491
2.5487	26.442
2.5475	26.416
2.5462	26.401
2.545	26.389
2.5437	26.379
2.5425	26.373
2.5413	26.37
2.54	26.367
2.5388	26.359
2.5375	26.344
2.5363	26.33
2.535	26.328
2.5338	26.348
2.5326	26.395
2.5313	26.467
2.5301	26.552
2.5289	26.639
2.5276	26.716
2.5264	26.779
2.5252	26.83
2.5239	26.871
2.5227	26.908
2.5215	26.943
2.5202	26.98
2.519	27.02
2.5178	27.063
2.5166	27.112
2.5154	27.165
2.5141	27.219
2.5129	27.27
2.5117	27.316
2.5105	27.353
2.5093	27.385
2.5081	27.416
2.5068	27.45
2.5056	27.492
2.5044	27.543
2.5032	27.6
2.502	27.661
2.5008	27.717
2.4996	27.765
2.4984	27.802
2.4972	27.829
2.496	27.852
2.4948	27.875
2.4936	27.908
2.4924	27.952
2.4912	28.008
2.49	28.072
2.4888	28.14
2.4876	28.209
2.4864	28.279
2.4852	28.353
2.484	28.435
2.4828	28.527
2.4816	28.624
2.4805	28.72
2.4793	28.807
2.4781	28.878
2.4769	28.931
2.4757	28.969
2.4745	29.003
2.4734	29.042
2.4722	29.094
2.471	29.163
2.4698	29.245
2.4686	29.331
2.4675	29.413
2.4663	29.485
2.4651	29.544
2.464	29.593
2.4628	29.639
2.4616	29.688
2.4604	29.745
2.4593	29.809
2.4581	29.878
2.4569	29.947
2.4558	30.013
2.4546	30.072
2.4535	30.127
2.4523	30.178
2.4511	30.23
2.45	30.285
2.4488	30.345
2.4477	30.409
2.4465	30.476
2.4454	30.544
2.4442	30.61
2.4431	30.674
2.4419	30.739
2.4408	30.809
2.4396	30.889
2.4385	30.98
2.4373	31.08
2.4362	31.186
2.435	31.29
2.4339	31.385
2.4327	31.469
2.4316	31.544
2.4305	31.612
2.4293	31.68
2.4282	31.754
2.427	31.834
2.4259	31.919
2.4248	32.004
2.4236	32.085
2.4225	32.159
2.4214	32.228
2.4202	32.293
2.4191	32.358
2.418	32.426
2.4169	32.495
2.4157	32.564
2.4146	32.63
2.4135	32.69
2.4124	32.745
2.4112	32.798
2.4101	32.849
2.409	32.9
2.4079	32.952
2.4068	33
2.4056	33.042
2.4045	33.075
2.4034	33.098
2.4023	33.112
2.4012	33.122
2.4001	33.13
2.399	33.14
2.3979	33.151
2.3967	33.161
2.3956	33.17
2.3945	33.173
2.3934	33.17
2.3923	33.161
2.3912	33.15
2.3901	33.14
2.389	33.134
2.3879	33.132
2.3868	33.134
2.3857	33.142
2.3846	33.155
2.3835	33.173
2.3824	33.196
2.3813	33.226
2.3802	33.26
2.3791	33.298
2.3781	33.341
2.377	33.388
2.3759	33.44
2.3748	33.497
2.3737	33.557
2.3726	33.615
2.3715	33.669
2.3704	33.715
2.3694	33.752
2.3683	33.78
2.3672	33.801
2.3661	33.816
2.365	33.828
2.364	33.839
2.3629	33.852
2.3618	33.869
2.3607	33.89
2.3597	33.918
2.3586	33.949
2.3575	33.979
2.3564	34.005
2.3554	34.024
2.3543	34.034
2.3532	34.038
2.3522	34.037
2.3511	34.039
2.35	34.045
2.349	34.061
2.3479	34.087
2.3468	34.124
2.3458	34.172
2.3447	34.229
2.3436	34.294
2.3426	34.365
2.3415	34.438
2.3405	34.509
2.3394	34.577
2.3384	34.638
2.3373	34.694
2.3363	34.745
2.3352	34.798
2.3342	34.856
2.3331	34.922
2.3321	34.996
2.331	35.075
2.33	35.152
2.3289	35.221
2.3279	35.277
2.3268	35.323
2.3258	35.365
2.3247	35.408
2.3237	35.46
2.3226	35.522
2.3216	35.59
2.3206	35.659
2.3195	35.724
2.3185	35.785
2.3175	35.841
2.3164	35.894
2.3154	35.943
2.3144	35.986
2.3133	36.019
2.3123	36.04
2.3113	36.052
2.3102	36.06
2.3092	36.07
2.3082	36.088
2.3071	36.115
2.3061	36.151
2.3051	36.189
2.3041	36.226
2.303	36.26
2.302	36.289
2.301	36.315
2.3	36.342
2.299	36.374
2.2979	36.41
2.2969	36.446
2.2959	36.483
2.2949	36.518
2.2939	36.554
2.2929	36.598
2.2918	36.653
2.2908	36.721
2.2898	36.794
2.2888	36.862
2.2878	36.915
2.2868	36.952
2.2858	36.981
2.2848	37.013
2.2838	37.061
2.2828	37.129
2.2818	37.209
2.2808	37.287
2.2798	37.348
2.2787	37.387
2.2777	37.407
2.2767	37.423
2.2757	37.45
2.2747	37.497
2.2738	37.563
2.2728	37.638
2.2718	37.705
2.2708	37.752
2.2698	37.771
2.2688	37.762
2.2678	37.728
2.2668	37.676
2.2658	37.613
2.2648	37.545
2.2638	37.478
2.2628	37.417
2.2618	37.368
2.2609	37.331
2.2599	37.307
2.2589	37.293
2.2579	37.286
2.2569	37.283
2.2559	37.283
2.255	37.284
2.254	37.285
2.253	37.283
2.252	37.276
2.251	37.259
2.2501	37.232
2.2491	37.197
2.2481	37.16
2.2471	37.128
2.2462	37.108
2.2452	37.105
2.2442	37.117
2.2433	37.142
2.2423	37.171
2.2413	37.199
2.2403	37.22
2.2394	37.236
2.2384	37.248
2.2374	37.26
2.2365	37.273
2.2355	37.284
2.2345	37.291
2.2336	37.292
2.2326	37.286
2.2317	37.28
2.2307	37.279
2.2297	37.288
2.2288	37.305
2.2278	37.326
2.2269	37.344
2.2259	37.351
2.225	37.343
2.224	37.323
2.2231	37.292
2.2221	37.258
2.2211	37.222
2.2202	37.185
2.2192	37.142
2.2183	37.082
2.2173	36.994
2.2164	36.869
2.2155	36.701
2.2145	36.493
2.2136	36.254
2.2126	36.001
2.2117	35.757
2.2107	35.548
2.2098	35.402
2.2088	35.339
2.2079	35.372
2.207	35.498
2.206	35.703
2.2051	35.957
2.2041	36.229
2.2032	36.489
2.2023	36.717
2.2013	36.903
2.2004	37.049
2.1995	37.165
2.1985	37.263
2.1976	37.352
2.1967	37.434
2.1957	37.509
2.1948	37.573
2.1939	37.623
2.193	37.662
2.192	37.701
2.1911	37.75
2.1902	37.82
2.1893	37.911
2.1883	38.02
2.1874	38.137
2.1865	38.25
2.1856	38.352
2.1846	38.44
2.1837	38.516
2.1828	38.582
2.1819	38.641
2.181	38.691
2.18	38.732
2.1791	38.761
2.1782	38.782
2.1773	38.797
2.1764	38.813
2.1755	38.837
2.1746	38.87
2.1736	38.912
2.1727	38.952
2.1718	38.982
2.1709	38.995
2.17	38.991
2.1691	38.981
2.1682	38.979
2.1673	38.996
2.1664	39.04
2.1655	39.107
2.1646	39.183
2.1637	39.255
2.1628	39.31
2.1619	39.347
2.161	39.37
2.1601	39.389
2.1592	39.417
2.1583	39.467
2.1574	39.539
2.1565	39.629
2.1556	39.728
2.1547	39.823
2.1538	39.901
2.1529	39.958
2.152	40.001
2.1511	40.039
2.1502	40.084
2.1493	40.145
2.1484	40.222
2.1475	40.31
2.1466	40.395
2.1458	40.469
2.1449	40.528
2.144	40.571
2.1431	40.599
2.1422	40.62
2.1413	40.638
2.1404	40.651
2.1396	40.66
2.1387	40.664
2.1378	40.666
2.1369	40.669
2.136	40.675
2.1352	40.688
2.1343	40.707
2.1334	40.729
2.1325	40.75
2.1316	40.768
2.1308	40.781
2.1299	40.793
2.129	40.803
2.1281	40.81
2.1273	40.816
2.1264	40.816
2.1255	40.811
2.1247	40.804
2.1238	40.797
2.1229	40.798
2.122	40.81
2.1212	40.835
2.1203	40.871
2.1194	40.912
2.1186	40.947
2.1177	40.967
2.1168	40.967
2.116	40.945
2.1151	40.906
2.1143	40.858
2.1134	40.811
2.1125	40.772
2.1117	40.748
2.1108	40.743
2.11	40.757
2.1091	40.786
2.1082	40.824
2.1074	40.861
2.1065	40.883
2.1057	40.886
2.1048	40.865
2.104	40.829
2.1031	40.791
2.1023	40.762
2.1014	40.753
2.1005	40.765
2.0997	40.788
2.0988	40.81
2.098	40.818
2.0971	40.805
2.0963	40.771
2.0955	40.724
2.0946	40.672
2.0938	40.627
2.0929	40.596
2.0921	40.581
2.0912	40.583
2.0904	40.599
2.0895	40.62
2.0887	40.637
2.0879	40.64
2.087	40.624
2.0862	40.595
2.0853	40.563
2.0845	40.539
2.0837	40.545
2.0828	40.565
2.082	40.595
2.0812	40.659
2.0803	40.621
2.0795	40.613
2.076	40.613
2.072	40.212
2.068	40.263
2.064	40.367
2.06	40.471
2.056	40.319
2.052	40.073
2.048	39.873
2.044	39.776
2.04	39.53
2.036	39.385
2.032	39.433
2.028	39.285
2.024	39.092
2.02	38.946
2.016	38.463
2.012	37.886
2.008	37.597
2.004	37.311
2	36.791
1.996	36.642
1.992	36.262
1.988	36.204
1.984	35.916
1.98	35.491
1.976	35.019
1.972	34.687
1.968	34.026
1.964	33.749
1.96	33.42
1.956	33.23
1.952	33.125
1.948	32.881
1.944	32.775
1.94	32.477
1.936	32.394
1.932	31.841
1.928	31.164
1.924	30.749
1.92	30.013
1.916	29.568
1.912	29.414
1.908	29.237
1.904	29.197
1.9	29.779
1.896	30.655
1.892	31.657
1.888	32.79
1.884	34.011
1.88	35.337
1.876	36.175
1.872	36.871
1.868	37.432
1.864	37.516
1.86	40.421
1.856	40.389
1.852	40.688
1.848	41.013
1.844	40.571
1.84	40.426
1.836	40.194
1.832	40.432
1.828	40.85
1.824	40.701
1.82	41.072
1.816	41.214
1.812	41.072
1.808	41.076
1.804	41.121
1.8	40.882
1.796	40.749
1.792	40.749
1.788	40.842
1.784	41.019
1.78	41.072
1.776	40.697
1.772	40.786
1.768	40.786
1.764	40.556
1.76	40.512
1.756	40.512
1.752	40.697
1.748	40.786
1.744	40.553
1.74	40.413
1.736	40.238
1.732	40.286
1.728	40.148
1.724	40.381
1.72	40.677
1.716	41.149
1.712	40.998
1.708	40.707
1.704	40.756
1.7	40.605
1.696	40.42
1.692	40.506
1.688	40.509
1.684	40.327
1.68	40.611
1.676	40.663
1.672	40.375
1.668	40.515
1.664	40.519
1.66	40.652
1.656	40.797
1.652	41.038
1.648	40.57
1.644	39.96
1.64	39.821
1.636	40.243
1.632	40.429
1.628	40.759
1.624	40.669
1.62	40.563
1.616	40.245
1.612	40.105
1.608	39.548
1.604	39.501
1.6	39.643
1.596	39.728
1.592	39.366
1.588	39.695
1.584	39.6
1.58	39.597
1.576	39.501
1.572	39.269
1.568	39.735
1.564	39.32
1.56	39.041
1.556	38.903
1.552	39.181
1.548	39.181
1.544	38.95
1.54	39.003
1.536	39.042
1.532	38.311
1.528	38.488
1.524	38.218
1.52	38.403
1.516	38.494
1.512	38.264
1.508	38.308
1.504	38.123
1.5	37.653
1.496	37.463
1.492	38.012
1.488	37.786
1.484	37.782
1.48	37.643
1.476	37.365
1.472	37.233
1.468	37.184
1.464	37.043
1.46	36.868
1.456	36.904
1.452	36.398
1.448	35.814
1.444	35.845
1.44	35.703
1.436	35.517
1.432	35.461
1.428	35.498
1.424	35.217
1.42	34.892
1.416	34.015
1.412	33.361
1.408	32.83
1.404	33.121
1.4	34.08
1.396	34.824
1.392	34.985
1.388	35.592
1.384	36.168
1.38	36.123
1.376	36.538
1.372	37.631
1.368	37.438
1.364	37.374
1.36	37.737
1.356	37.736
1.352	38.076
1.348	37.834
1.344	38.093
1.34	37.652
1.336	36.834
1.332	37.013
1.328	36.969
1.324	37.234
1.32	37.053
1.316	36.965
1.312	37.013
1.308	36.969
1.304	36.756
1.3	36.882
1.296	37.32
1.292	37.143
1.288	36.908
1.284	36.811
1.28	36.476
1.276	36.603
1.272	36.543
1.268	36.538
1.264	36.078
1.26	36.205
1.256	36.021
1.252	36.009
1.248	35.907
1.244	35.591
1.24	35.315
1.236	35.212
1.232	35.066
1.228	35.555
1.224	35.858
1.22	35.858
1.216	35.714
1.212	35.468
1.208	35.201
1.204	35.241
1.2	35.147
1.196	35.053
1.192	35.053
1.188	34.925
1.184	34.606
1.18	34.667
1.176	34.48
1.172	34.396
1.168	34.261
1.164	34.032
1.16	33.67
1.156	33.659
1.152	33.789
1.148	33.768
1.144	33.693
1.14	33.807
1.136	33.66
1.132	33.869
1.128	33.629
1.124	33.607
1.12	33.376
1.116	33.251
1.112	33.075
1.108	32.519
1.104	31.838
1.1	31.425
1.096	31.878
1.092	32.385
1.088	32.277
1.084	31.914
1.08	31.716
1.076	31.325
1.072	31.393
1.068	31.503
1.064	31.119
1.06	31.236
1.056	31.059
1.052	30.645
1.048	30.349
1.044	30.54
1.04	30.788
1.036	30.578
1.032	30.1
1.028	30.065
1.024	30.35
1.02	30.264
1.016	29.902
1.012	29.62
1.008	29.545
1.004	29.09
1	29.184
0.996	29.221
0.992	28.966
0.988	28.81
0.984	28.046
0.98	27.983
0.976	28.12
0.972	28.322
0.968	28.375
0.964	28.02
0.96	28.102
0.956	28.118
0.952	27.727
0.948	27.562
0.944	27.339
0.94	27.268
0.936	27.069
0.932	27.232
0.928	26.988
0.924	26.771
0.92	26.685
0.916	26.615
0.912	26.69
0.908	26.21
0.904	26.111
0.9	26.018
0.896	25.74
0.892	25.521
0.888	25.784
0.884	25.753
0.88	25.353
0.876	25.482
0.872	25.296
0.868	24.956
0.864	24.997
0.86	25.201
0.856	24.986
0.852	24.892
0.848	24.831
0.844	24.548
0.84	24.649
0.836	24.649
0.832	24.807
0.828	24.588
0.824	24.907
0.82	24.353
0.816	24.253
0.812	24.187
0.808	23.996
0.804	23.935
0.8	23.647
0.799	23.647
0.798	23.647
0.797	23.678
0.796	24.171
0.795	23.872
0.794	23.667
0.793	23.637
0.792	23.434
0.791	23.197
0.79	23.369
0.789	23.3
0.788	22.971
0.787	22.773
0.786	22.774
0.785	22.842
0.784	22.871
0.783	22.903
0.782	23.208
0.781	23.169
0.78	22.804
0.779	22.768
0.778	22.799
0.777	22.74
0.776	22.576
0.775	22.745
0.774	22.608
0.773	22.405
0.772	22.304
0.771	22.174
0.77	22.371
0.769	22.208
0.768	22.304
0.767	22.37
0.766	22.206
0.765	21.842
0.764	22.074
0.763	22.545
0.762	22.276
0.761	22.009
0.76	21.743
0.759	21.478
0.758	21.511
0.757	21.742
0.756	21.643
0.755	21.742
0.754	21.742
0.753	21.576
0.752	21.377
0.751	21.244
0.75	21.376
0.749	21.177
0.748	21.046
0.747	21.343
0.746	21.177
0.745	21.077
0.744	21.11
0.743	21.241
0.742	21.176
0.741	20.977
0.74	20.742
0.739	20.61
0.738	20.542
0.737	20.51
0.736	20.805
0.735	20.639
0.734	20.74
0.733	20.704
0.732	20.74
0.731	20.446
0.73	20.575
0.729	20.41
0.728	20.41
0.727	20.442
0.726	19.984
0.725	19.947
0.724	19.654
0.723	19.842
0.722	19.679
0.721	19.653
0.72	19.554
0.719	19.737
0.718	19.699
0.717	20.025
0.716	19.988
0.715	19.886
0.714	19.581
0.713	19.454
0.712	19.329
0.711	19.353
0.71	19.353
0.709	19.424
0.708	19.386
0.707	19.182
0.706	18.918
0.705	18.949
0.704	18.888
0.703	18.888
0.702	19.176
0.701	18.966
0.7	18.761
0.699	19.835
0.698	19.143
0.697	19.082
0.696	18.887
0.695	18.451
0.694	18.348
0.693	18.379
0.692	18.348
0.691	18.358
0.69	18.129
0.689	18.242
0.688	18.451
0.687	18.016
0.686	17.944
0.685	17.741
0.684	17.874
0.683	17.844
0.682	17.813
0.681	17.68
0.68	17.62
0.679	17.626
0.678	17.36
0.677	17.274
0.676	17.304
0.675	17.366
0.674	17.291
0.673	17.201
0.672	17.008
0.671	16.86
0.67	16.655
0.669	17.008
0.668	17.291
0.667	17.201
0.666	16.699
0.665	16.376
0.664	16.537
0.663	16.522
0.662	16.773
0.661	16.61
0.66	16.61
0.659	16.286
0.658	16.44
0.657	16.824
0.656	16.299
0.655	16.109
0.654	15.863
0.653	15.675
0.652	15.931
0.651	16.203
0.65	16.092
0.649	16.132
0.648	15.578
0.647	15.183
0.646	15.238
0.645	15.521
0.644	15.257
0.643	15.55
0.642	15.732
0.641	15.628
0.64	15.383
0.639	15.006
0.638	14.64
0.637	15.05
0.636	15.554
0.635	15.468
0.634	15.355
0.633	15.034
0.632	15.15
0.631	14.899
0.63	15.112
0.629	14.534
0.628	14.323
0.627	14.35
0.626	14.802
0.625	14.534
0.624	14.486
0.623	14.492
0.622	14.382
0.621	14.568
0.62	14.489
0.619	14.28
0.618	14.253
0.617	14.199
0.616	14.182
0.615	14.399
0.614	14.133
0.613	14.24
0.612	14.111
0.611	14.166
0.61	14.107
0.609	14.324
0.608	13.949
0.607	13.908
0.606	13.83
0.605	13.666
0.604	13.693
0.603	13.695
0.602	13.838
0.601	13.592
0.6	13.461
0.599	13.543
0.598	13.704
0.597	13.625
0.596	13.747
0.595	13.117
0.594	13.209
0.593	13.29
0.592	13.209
0.591	13.344
0.59	13.243
0.589	13.297
0.588	13.301
0.587	12.944
0.586	13.24
0.585	13.089
0.584	12.37
0.583	12.37
0.582	12.341
0.581	12.059
0.58	12.059
0.579	11.983
0.578	11.983
0.577	12.206
0.576	12.1
0.575	11.667
0.574	11.789
0.573	11.605
0.572	11.514
0.571	11.508
0.57	11.3
0.569	11.125
0.568	10.871
0.567	10.75
0.566	10.624
0.565	10.411
0.564	10.521
0.563	10.464
0.562	10.258
0.561	9.986
0.56	9.721
0.559	9.293
0.558	9.784
0.557	9.718
0.556	9.579
0.555	9.337
0.554	9.277
0.553	9.215
0.552	9.051
0.551	8.909
0.55	8.744
0.549	8.601
0.548	8.73
0.547	8.622
0.546	8.369
0.545	8.161
0.544	8.224
0.543	7.703
0.542	7.744
0.541	7.706
0.54	7.343
0.539	7.593
0.538	7.444
0.537	7.062
0.536	6.821
0.535	6.593
0.534	6.531
0.533	6.636
0.532	6.527
0.531	6.422
0.53	6.246
0.529	6.139
0.528	5.827
0.527	5.564
0.526	5.378
0.525	5.396
0.524	5.273
0.523	5.242
0.522	5.173
0.521	4.948
0.52	4.819
0.519	4.814
0.518	4.76
0.517	4.82
0.516	4.576
0.515	4.307
0.514	4.136
0.513	3.982
0.512	3.846
0.511	3.774
0.51	3.5814
0.509	3.2134
0.508	3.29
0.507	3.0808
0.506	3.1418
0.505	2.8016
0.504	2.8669
0.503	2.7018
0.502	2.7366
0.501	2.6463
0.5	2.6149
0.499	2.6596
0.498	2.4768
0.497	2.3018
0.496	1.8302
0.495	1.8988
0.494	1.7936
0.493	1.5315
0.492	1.3727
0.491	1.2938
0.49	1.4319
0.489	1.2675
0.488	1.1493
0.487	0.939
0.486	1.2277
0.485	0.9043
0.484	0.8035
0.483	0.6183
0.482	0.6679
0.481	0.4751
0.48	0.63
0.479	0.4873
0.478	0.3814
0.477	0.1456
0.476	0.1225
0.475	-0.0886
0.474	-0.1778
0.473	-0.211
0.472	-0.244
0.471	-0.0886
0.47	-0.1444
0.469	-0.3847
0.468	-0.4435
0.467	-0.3491
0.466	-0.4542
0.465	-0.5647
0.464	-0.5119
0.463	-0.6235
0.462	-0.5818
0.461	-0.4906
0.46	-0.8933
0.459	-1.0174
0.458	-0.9644
0.457	-1.0606
0.456	-1.0511
0.455	-0.9
0.454	-0.9773
0.453	-1.0626
0.452	-1.3229
0.451	-1.3321
0.45	-1.5319
0.449	-1.5494
0.448	-1.6299
0.447	-1.6039
0.446	-1.9243
0.445	-1.8004
0.444	-2.0715
0.443	-2.2847
0.442	-2.2771
0.441	-2.4614
0.44	-2.6773
0.439	-2.6715
0.438	-2.7793
0.437	-2.8871
0.436	-3.0082
0.435	-3.3371
0.434	-3.5392
0.433	-3.6559
0.432	-3.5277
0.431	-3.4672
0.43	-3.8242
0.429	-3.8455
0.428	-3.7164
0.427	-4.0168
0.426	-3.8968
0.425	-4.2893
0.424	-4.2751
0.423	-4.3611
0.422	-4.4438
0.421	-4.5672
0.42	-4.6064
0.419	-4.729
0.418	-4.9464
0.417	-4.7249
0.416	-5.0466
0.415	-5.0611
0.414	-5.0683
0.413	-5.1909
0.412	-5.4248
0.411	-5.5226
0.41	-5.4068
0.409	-5.1629
0.408	-5.386
0.407	-5.4902
0.406	-5.6057
0.405	-5.743
0.404	-5.8504
0.403	-5.9515
0.402	-6.0505
0.401	-6.0505
0.4	-6.0505
